pos,corr_resp,trials.thisRepN,trials.thisTrialN,trials.thisN,trials.thisIndex,trials_2.thisRepN,trials_2.thisTrialN,trials_2.thisN,trials_2.thisIndex,fixation.started,line1.started,line2.started,line3.started,line4.started,fixation.stopped,probe.started,key_resp.started,key_resp.keys,key_resp.corr,key_resp.rt,participant,session,date,expName,psychopyVersion,frameRate,,,,no.,sequential,random
-50,x,0,0,0,0,,,,,19.5446184,20.5033904,20.5033904,20.5033904,20.5033904,20.5533058,21.5006152,21.5006152,x,1,1.6019714,1,1,2022-09-30_13h30.39.796,tutorial_4,2022.2.4,60.17368533,,,,1,1.6019714,0.2739098
150,v,0,1,1,1,,,,,23.1296272,24.1270092,24.1270092,24.1270092,24.1270092,24.1437926,25.1241282,25.1241282,v,1,0.7092412,1,1,2022-09-30_13h30.39.796,tutorial_4,2022.2.4,60.17368533,,,,2,0.7092412,0.4845336
50,c,0,2,2,2,,,,,25.8557698,26.8526886,26.8526886,26.8526886,26.8526886,26.8693175,27.8501149,27.8501149,c,1,0.449934,1,1,2022-09-30_13h30.39.796,tutorial_4,2022.2.4,60.17368533,,,,3,0.449934,0.3240906
-150,z,0,3,3,3,,,,,28.3321029,29.329444,29.329444,29.329444,29.329444,29.3459942,30.3265434,30.3265434,z,1,0.4431884,1,1,2022-09-30_13h30.39.796,tutorial_4,2022.2.4,60.17368533,,,,4,0.4431884,0.5972278
-50,x,1,0,4,0,,,,,30.7922114,31.7897681,31.7897681,31.7897681,31.7897681,31.8058705,32.7860838,32.7860838,x,1,0.5286308,1,1,2022-09-30_13h30.39.796,tutorial_4,2022.2.4,60.17368533,,,,5,0.5286308,0.751264
150,v,1,1,5,1,,,,,33.3346491,34.331984,34.331984,34.331984,34.331984,34.3485932,35.329269,35.329269,v,1,0.4111179,1,1,2022-09-30_13h30.39.796,tutorial_4,2022.2.4,60.17368533,,,,6,0.4111179,0.4984079
50,c,1,2,6,2,,,,,35.7614143,36.7592578,36.7592578,36.7592578,36.7592578,36.7756386,37.7562952,37.7562952,c,1,0.5466673,1,1,2022-09-30_13h30.39.796,tutorial_4,2022.2.4,60.17368533,,,,7,0.5466673,0.4802077
-150,z,1,3,7,3,,,,,38.3215745,39.3190813,39.3190813,39.3190813,39.3190813,39.3358064,40.3163726,40.3163726,z,1,0.4222002,1,1,2022-09-30_13h30.39.796,tutorial_4,2022.2.4,60.17368533,,,,8,0.4222002,0.6832047
-50,x,2,0,8,0,,,,,40.7651239,41.7626091,41.7626091,41.7626091,41.7626091,41.7787222,42.759831,42.759831,x,1,0.520166,1,1,2022-09-30_13h30.39.796,tutorial_4,2022.2.4,60.17368533,,,,9,0.520166,0.6364705
150,v,2,1,9,1,,,,,43.3079892,44.3053588,44.3053588,44.3053588,44.3053588,44.3218744,45.3027677,45.3027677,v,1,0.4047749,1,1,2022-09-30_13h30.39.796,tutorial_4,2022.2.4,60.17368533,,,,10,0.4047749,0.5329359
50,c,2,2,10,2,,,,,45.7347321,46.731961,46.731961,46.731961,46.731961,46.7492968,47.7290606,47.7290606,c,1,0.3511178,1,1,2022-09-30_13h30.39.796,tutorial_4,2022.2.4,60.17368533,,,,11,0.3511178,0.4446422
-150,z,2,3,11,3,,,,,48.1117938,49.1091308,49.1091308,49.1091308,49.1091308,49.1254699,50.1061536,50.1061536,z,1,0.3872226,1,1,2022-09-30_13h30.39.796,tutorial_4,2022.2.4,60.17368533,,,,12,0.3872226,0.4990008
-50,x,3,0,12,0,,,,,50.5217741,51.51954,51.51954,51.51954,51.51954,51.5359306,52.5162888,52.5162888,x,1,0.4208039,1,1,2022-09-30_13h30.39.796,tutorial_4,2022.2.4,60.17368533,,,,13,0.4208039,0.3474823
150,v,3,1,13,1,,,,,52.9651234,53.962581,53.962581,53.962581,53.962581,53.9789901,54.9594017,54.9594017,v,1,0.403017,1,1,2022-09-30_13h30.39.796,tutorial_4,2022.2.4,60.17368533,,,,14,0.403017,0.5970259
50,c,3,2,14,2,,,,,55.3918059,56.3892423,56.3892423,56.3892423,56.3892423,56.405594,57.3864872,57.3864872,v,0,0.3881663,1,1,2022-09-30_13h30.39.796,tutorial_4,2022.2.4,60.17368533,,,,15,0.5237076,0.4448377
-150,z,3,3,15,3,,,,,57.8023009,58.7997052,58.7997052,58.7997052,58.7997052,58.8159734,59.7962764,59.7962764,z,1,0.5237076,1,1,2022-09-30_13h30.39.796,tutorial_4,2022.2.4,60.17368533,,,,16,0.5049872,0.4108187
-50,x,4,0,16,0,,,,,60.3453638,61.342377,61.342377,61.342377,61.342377,61.358942,62.3399701,62.3399701,x,1,0.5049872,1,1,2022-09-30_13h30.39.796,tutorial_4,2022.2.4,60.17368533,,,,17,0.6464857,0.5713357
150,v,4,1,17,1,,,,,62.8714649,63.8684076,63.8684076,63.8684076,63.8684076,63.8848311,64.8658858,64.8658858,v,1,0.6464857,1,1,2022-09-30_13h30.39.796,tutorial_4,2022.2.4,60.17368533,,,,18,0.4476102,0.4852509
50,c,4,2,18,2,,,,,65.53083,66.5283391,66.5283391,66.5283391,66.5283391,66.5447752,67.5252828,67.5252828,x,0,0.5029483,1,1,2022-09-30_13h30.39.796,tutorial_4,2022.2.4,60.17368533,,,,19,0.5100564,0.5966662
-150,z,4,3,19,3,,,,,68.0573573,69.0549131,69.0549131,69.0549131,69.0549131,69.071346,70.0522529,70.0522529,z,1,0.4476102,1,1,2022-09-30_13h30.39.796,tutorial_4,2022.2.4,60.17368533,,,,20,0.3903004,0.4503016
-50,x,5,0,20,0,,,,,70.5176528,71.514567,71.514567,71.514567,71.514567,71.5311342,72.5120036,72.5120036,x,1,0.5100564,1,1,2022-09-30_13h30.39.796,tutorial_4,2022.2.4,60.17368533,,,,21,0.6132828,0.396478
150,v,5,1,21,1,,,,,73.043924,74.0411037,74.0411037,74.0411037,74.0411037,74.0577313,75.0386768,75.0386768,v,1,0.3903004,1,1,2022-09-30_13h30.39.796,tutorial_4,2022.2.4,60.17368533,,,,22,0.4028257,0.3893746
50,c,5,2,22,2,,,,,75.4538605,76.4510207,76.4510207,76.4510207,76.4510207,76.4679415,77.4483705,77.4483705,c,1,0.6132828,1,1,2022-09-30_13h30.39.796,tutorial_4,2022.2.4,60.17368533,,,,23,0.3956431,0.4397582
-150,z,5,3,23,3,,,,,78.079731,79.077443,79.077443,79.077443,79.077443,79.094154,80.0747393,80.0747393,z,1,0.4028257,1,1,2022-09-30_13h30.39.796,tutorial_4,2022.2.4,60.17368533,,,,24,0.3654433,0.4317933
-50,x,6,0,24,0,,,,,80.5071531,81.5043434,81.5043434,81.5043434,81.5043434,81.5207002,82.5014223,82.5014223,x,1,0.3956431,1,1,2022-09-30_13h30.39.796,tutorial_4,2022.2.4,60.17368533,,,,25,0.5843805,0.5281543
150,v,6,1,25,1,,,,,82.9168713,83.9145384,83.9145384,83.9145384,83.9145384,83.9312301,84.91147,84.91147,v,1,0.3654433,1,1,2022-09-30_13h30.39.796,tutorial_4,2022.2.4,60.17368533,,,,26,0.389764,0.4086484
50,c,6,2,26,2,,,,,85.2941564,86.2913548,86.2913548,86.2913548,86.2913548,86.3081026,87.2887037,87.2887037,c,1,0.5843805,1,1,2022-09-30_13h30.39.796,tutorial_4,2022.2.4,60.17368533,,,,27,0.4466606,0.5440726
-150,z,6,3,27,3,,,,,87.9036717,88.9004781,88.9004781,88.9004781,88.9004781,88.9175169,89.898394,89.898394,z,1,0.389764,1,1,2022-09-30_13h30.39.796,tutorial_4,2022.2.4,60.17368533,,,,28,0.5476025,0.4903743
-50,x,7,0,28,0,,,,,90.31369,91.3114892,91.3114892,91.3114892,91.3114892,91.3274621,92.3083354,92.3083354,x,1,0.4466606,1,1,2022-09-30_13h30.39.796,tutorial_4,2022.2.4,60.17368533,,,,29,0.2778327,0.4712697
150,v,7,1,29,1,,,,,92.7737519,93.7707266,93.7707266,93.7707266,93.7707266,93.7871856,94.7682654,94.7682654,v,1,0.5476025,1,1,2022-09-30_13h30.39.796,tutorial_4,2022.2.4,60.17368533,,,,30,0.3084381,0.4440939
50,c,7,2,30,2,,,,,95.3331771,96.3303937,96.3303937,96.3303937,96.3303937,96.3473858,97.327914,97.327914,c,1,0.2778327,1,1,2022-09-30_13h30.39.796,tutorial_4,2022.2.4,60.17368533,,,,31,0.238257,0.3629312
-150,z,7,3,31,3,,,,,97.6269476,98.6243609,98.6243609,98.6243609,98.6243609,98.6407135,99.6216064,99.6216064,z,1,0.3084381,1,1,2022-09-30_13h30.39.796,tutorial_4,2022.2.4,60.17368533,,,,32,0.215442,0.4513718
-50,x,8,0,32,0,,,,,99.9539836,100.9512498,100.9512498,100.9512498,100.9512498,100.9680386,101.9487459,101.9487459,x,1,0.238257,1,1,2022-09-30_13h30.39.796,tutorial_4,2022.2.4,60.17368533,,,,33,0.2291064,0.6076536
150,v,8,1,33,1,,,,,102.2143275,103.2117793,103.2117793,103.2117793,103.2117793,103.2285099,104.2091565,104.2091565,v,1,0.215442,1,1,2022-09-30_13h30.39.796,tutorial_4,2022.2.4,60.17368533,,,,34,0.2211631,0.5457948
50,c,8,2,34,2,,,,,104.4417902,105.4390664,105.4390664,105.4390664,105.4390664,105.4556876,106.4365188,106.4365188,c,1,0.2291064,1,1,2022-09-30_13h30.39.796,tutorial_4,2022.2.4,60.17368533,,,,35,0.4745798,0.486405
-150,z,8,3,35,3,,,,,106.685246,107.6825574,107.6825574,107.6825574,107.6825574,107.6989831,108.68011,108.68011,z,1,0.2211631,1,1,2022-09-30_13h30.39.796,tutorial_4,2022.2.4,60.17368533,,,,36,0.1518931,0.4682831
-50,x,9,0,36,0,,,,,108.929812,109.9268206,109.9268206,109.9268206,109.9268206,109.9434309,110.9247583,110.9247583,x,1,0.4745798,1,1,2022-09-30_13h30.39.796,tutorial_4,2022.2.4,60.17368533,,,,37,0.0532262,0.6988064
150,v,9,1,37,1,,,,,111.4230776,112.4199589,112.4199589,112.4199589,112.4199589,112.436609,113.4174369,113.4174369,v,1,0.1518931,1,1,2022-09-30_13h30.39.796,tutorial_4,2022.2.4,60.17368533,,,,38,0.2070384,0.4601953
50,c,9,2,38,2,,,,,113.600338,114.5979062,114.5979062,114.5979062,114.5979062,114.6141292,115.594997,115.594997,c,1,0.0532262,1,1,2022-09-30_13h30.39.796,tutorial_4,2022.2.4,60.17368533,,,,39,0.44355,0.563283
-150,z,9,3,39,3,,,,,115.6774144,116.6746733,116.6746733,116.6746733,116.6746733,116.6912999,117.6720758,117.6720758,z,1,0.2070384,1,1,2022-09-30_13h30.39.796,tutorial_4,2022.2.4,60.17368533,,,,40,0.2686635,0.4482325
-50,x,10,0,40,0,,,,,117.9052732,118.9023428,118.9023428,118.9023428,118.9023428,118.9191678,119.9000948,119.9000948,x,1,0.44355,1,1,2022-09-30_13h30.39.796,tutorial_4,2022.2.4,60.17368533,,,,41,0.2186939,0.4292774
150,v,10,1,41,1,,,,,120.3656376,121.3628433,121.3628433,121.3628433,121.3628433,121.378783,122.3601065,122.3601065,v,1,0.2686635,1,1,2022-09-30_13h30.39.796,tutorial_4,2022.2.4,60.17368533,,,,42,0.2926201,0.5068487
50,c,10,2,42,2,,,,,122.6586561,123.6558855,123.6558855,123.6558855,123.6558855,123.6724322,124.6531935,124.6531935,c,1,0.2186939,1,1,2022-09-30_13h30.39.796,tutorial_4,2022.2.4,60.17368533,,,,43,0.1706498,0.426038
-150,z,10,3,43,3,,,,,124.9027732,125.9000298,125.9000298,125.9000298,125.9000298,125.9167093,126.8974162,126.8974162,z,1,0.2926201,1,1,2022-09-30_13h30.39.796,tutorial_4,2022.2.4,60.17368533,,,,44,0.2044472,0.4071086
-50,x,11,0,44,0,,,,,127.2133452,128.2102541,128.2102541,128.2102541,128.2102541,128.226997,129.2082976,129.2082976,x,1,0.1706498,1,1,2022-09-30_13h30.39.796,tutorial_4,2022.2.4,60.17368533,,,,45,0.2516065,0.4644674
150,v,11,1,45,1,,,,,129.4073937,130.4043978,130.4043978,130.4043978,130.4043978,130.4216546,131.4018779,131.4018779,v,1,0.2044472,1,1,2022-09-30_13h30.39.796,tutorial_4,2022.2.4,60.17368533,,,,46,0.2475553,0.6666164
50,c,11,2,46,2,,,,,131.6345932,132.6321802,132.6321802,132.6321802,132.6321802,132.6483753,133.6295028,133.6295028,c,1,0.2516065,1,1,2022-09-30_13h30.39.796,tutorial_4,2022.2.4,60.17368533,,,,,,
-150,z,11,3,47,3,,,,,133.9117064,134.9090131,134.9090131,134.9090131,134.9090131,134.9254864,135.9063207,135.9063207,z,1,0.2475553,1,1,2022-09-30_13h30.39.796,tutorial_4,2022.2.4,60.17368533,,,,,,
-50,x,,,,,0,0,0,0,136.1741252,137.1697757,137.1697757,137.1697757,137.1697757,137.1859544,138.1668387,138.1668387,x,1,0.2739098,1,1,2022-09-30_13h30.39.796,tutorial_4,2022.2.4,60.17368533,,,,,,
-50,x,,,,,0,1,1,0,138.4658411,139.4634758,139.4634758,139.4634758,139.4634758,139.4799195,140.4604787,140.4604787,v,0,0.3561483,1,1,2022-09-30_13h30.39.796,tutorial_4,2022.2.4,60.17368533,,,,,,
150,v,,,,,0,2,2,1,140.8426637,141.8401792,141.8401792,141.8401792,141.8401792,141.8565086,142.8376403,142.8376403,v,1,0.4845336,1,1,2022-09-30_13h30.39.796,tutorial_4,2022.2.4,60.17368533,,,,,,
50,c,,,,,0,3,3,2,143.3524634,144.3501405,144.3501405,144.3501405,144.3501405,144.3663622,145.3473843,145.3473843,c,1,0.3240906,1,1,2022-09-30_13h30.39.796,tutorial_4,2022.2.4,60.17368533,,,,,,
150,v,,,,,1,0,4,1,145.6958056,146.6930234,146.6930234,146.6930234,146.6930234,146.7095986,147.6902461,147.6902461,v,1,0.5972278,1,1,2022-09-30_13h30.39.796,tutorial_4,2022.2.4,60.17368533,,,,,,
-50,x,,,,,1,1,5,0,148.3055148,149.3026458,149.3026458,149.3026458,149.3026458,149.3194847,150.3000165,150.3000165,x,1,0.751264,1,1,2022-09-30_13h30.39.796,tutorial_4,2022.2.4,60.17368533,,,,,,
-50,x,,,,,1,2,6,0,151.0811957,152.0785365,152.0785365,152.0785365,152.0785365,152.0954147,153.0757349,153.0757349,x,1,0.4984079,1,1,2022-09-30_13h30.39.796,tutorial_4,2022.2.4,60.17368533,,,,,,
50,c,,,,,1,3,7,2,153.5911457,154.588474,154.588474,154.588474,154.588474,154.6050638,155.5858028,155.5858028,c,1,0.4802077,1,1,2022-09-30_13h30.39.796,tutorial_4,2022.2.4,60.17368533,,,,,,
-50,x,,,,,2,0,8,0,156.0842437,157.0819131,157.0819131,157.0819131,157.0819131,157.0983378,158.0788555,158.0788555,x,1,0.6832047,1,1,2022-09-30_13h30.39.796,tutorial_4,2022.2.4,60.17368533,,,,,,
50,c,,,,,2,1,9,2,158.7935828,159.79088,159.79088,159.79088,159.79088,159.80754,160.7880951,160.7880951,c,1,0.6364705,1,1,2022-09-30_13h30.39.796,tutorial_4,2022.2.4,60.17368533,,,,,,
-150,z,,,,,2,2,10,3,161.4531094,162.4504213,162.4504213,162.4504213,162.4504213,162.4669382,163.4474786,163.4474786,z,1,0.5329359,1,1,2022-09-30_13h30.39.796,tutorial_4,2022.2.4,60.17368533,,,,,,
50,c,,,,,2,3,11,2,164.0128096,165.010193,165.010193,165.010193,165.010193,165.0268761,166.0074261,166.0074261,c,1,0.4446422,1,1,2022-09-30_13h30.39.796,tutorial_4,2022.2.4,60.17368533,,,,,,
-50,x,,,,,3,0,12,0,166.4729408,167.4701198,167.4701198,167.4701198,167.4701198,167.486938,168.4677131,168.4677131,x,1,0.4990008,1,1,2022-09-30_13h30.39.796,tutorial_4,2022.2.4,60.17368533,,,,,,
50,c,,,,,3,1,13,2,168.9990357,169.996944,169.996944,169.996944,169.996944,170.0133981,170.9941885,170.9941885,c,1,0.3474823,1,1,2022-09-30_13h30.39.796,tutorial_4,2022.2.4,60.17368533,,,,,,
150,v,,,,,3,2,14,1,171.3598354,172.3569591,172.3569591,172.3569591,172.3569591,172.3738936,173.354307,173.354307,v,1,0.5970259,1,1,2022-09-30_13h30.39.796,tutorial_4,2022.2.4,60.17368533,,,,,,
-150,z,,,,,3,3,15,3,173.9690303,174.9666636,174.9666636,174.9666636,174.9666636,174.9831319,175.96428,175.96428,z,1,0.4448377,1,1,2022-09-30_13h30.39.796,tutorial_4,2022.2.4,60.17368533,,,,,,
50,c,,,,,4,0,16,2,176.4293063,177.4263444,177.4263444,177.4263444,177.4263444,177.4431124,178.4237256,178.4237256,c,1,0.4108187,1,1,2022-09-30_13h30.39.796,tutorial_4,2022.2.4,60.17368533,,,,,,
-150,z,,,,,4,1,17,3,178.855736,179.8532899,179.8532899,179.8532899,179.8532899,179.8697053,180.8502683,180.8502683,z,1,0.5713357,1,1,2022-09-30_13h30.39.796,tutorial_4,2022.2.4,60.17368533,,,,,,
50,c,,,,,4,2,18,2,181.4486888,182.4462725,182.4462725,182.4462725,182.4462725,182.4627975,183.4436978,183.4436978,c,1,0.4852509,1,1,2022-09-30_13h30.39.796,tutorial_4,2022.2.4,60.17368533,,,,,,
50,c,,,,,4,3,19,2,183.9587161,184.9559764,184.9559764,184.9559764,184.9559764,184.9725665,185.9540036,185.9540036,c,1,0.5966662,1,1,2022-09-30_13h30.39.796,tutorial_4,2022.2.4,60.17368533,,,,,,
-150,z,,,,,5,0,20,3,186.5683071,187.5657954,187.5657954,187.5657954,187.5657954,187.5822604,188.5631095,188.5631095,z,1,0.4503016,1,1,2022-09-30_13h30.39.796,tutorial_4,2022.2.4,60.17368533,,,,,,
50,c,,,,,5,1,21,2,189.0449201,190.0421903,190.0421903,190.0421903,190.0421903,190.0587942,191.0395605,191.0395605,c,1,0.396478,1,1,2022-09-30_13h30.39.796,tutorial_4,2022.2.4,60.17368533,,,,,,
-50,x,,,,,5,2,22,0,191.4550047,192.4523434,192.4523434,192.4523434,192.4523434,192.4689987,193.449519,193.449519,z,0,0.4253531,1,1,2022-09-30_13h30.39.796,tutorial_4,2022.2.4,60.17368533,,,,,,
150,v,,,,,5,3,23,1,193.8983007,194.8953773,194.8953773,194.8953773,194.8953773,194.9121494,195.892727,195.892727,v,1,0.3893746,1,1,2022-09-30_13h30.39.796,tutorial_4,2022.2.4,60.17368533,,,,,,
-150,z,,,,,6,0,24,3,196.3083685,197.3055993,197.3055993,197.3055993,197.3055993,197.3224887,198.3028935,198.3028935,z,1,0.4397582,1,1,2022-09-30_13h30.39.796,tutorial_4,2022.2.4,60.17368533,,,,,,
-150,z,,,,,6,1,25,3,198.7684659,199.7655411,199.7655411,199.7655411,199.7655411,199.7820802,200.7629218,200.7629218,z,1,0.4317933,1,1,2022-09-30_13h30.39.796,tutorial_4,2022.2.4,60.17368533,,,,,,
50,c,,,,,6,2,26,2,201.2116535,202.2087286,202.2087286,202.2087286,202.2087286,202.2253277,203.2061414,203.2061414,c,1,0.5281543,1,1,2022-09-30_13h30.39.796,tutorial_4,2022.2.4,60.17368533,,,,,,
150,v,,,,,6,3,27,1,203.7546422,204.7519389,204.7519389,204.7519389,204.7519389,204.7685838,205.749177,205.749177,v,1,0.4086484,1,1,2022-09-30_13h30.39.796,tutorial_4,2022.2.4,60.17368533,,,,,,
50,c,,,,,7,0,28,2,206.1817921,207.1787248,207.1787248,207.1787248,207.1787248,207.1953426,208.1761033,208.1761033,c,1,0.5440726,1,1,2022-09-30_13h30.39.796,tutorial_4,2022.2.4,60.17368533,,,,,,
-150,z,,,,,7,1,29,3,208.7413582,209.7386994,209.7386994,209.7386994,209.7386994,209.7553696,210.7357864,210.7357864,z,1,0.4903743,1,1,2022-09-30_13h30.39.796,tutorial_4,2022.2.4,60.17368533,,,,,,
150,v,,,,,7,2,30,1,211.2511728,212.2488374,212.2488374,212.2488374,212.2488374,212.2649269,213.2457961,213.2457961,v,1,0.4712697,1,1,2022-09-30_13h30.39.796,tutorial_4,2022.2.4,60.17368533,,,,,,
150,v,,,,,7,3,31,1,213.744351,214.7418011,214.7418011,214.7418011,214.7418011,214.7584559,215.7388134,215.7388134,v,1,0.4440939,1,1,2022-09-30_13h30.39.796,tutorial_4,2022.2.4,60.17368533,,,,,,
150,v,,,,,8,0,32,1,216.2044814,217.2018029,217.2018029,217.2018029,217.2018029,217.2184543,218.1987745,218.1987745,v,1,0.3629312,1,1,2022-09-30_13h30.39.796,tutorial_4,2022.2.4,60.17368533,,,,,,
-150,z,,,,,8,1,33,3,218.5813503,219.578661,219.578661,219.578661,219.578661,219.595554,220.5761264,220.5761264,z,1,0.4513718,1,1,2022-09-30_13h30.39.796,tutorial_4,2022.2.4,60.17368533,,,,,,
-50,x,,,,,8,2,34,0,221.0581823,222.0555055,222.0555055,222.0555055,222.0555055,222.0721264,223.0526062,223.0526062,x,1,0.6076536,1,1,2022-09-30_13h30.39.796,tutorial_4,2022.2.4,60.17368533,,,,,,
-150,z,,,,,8,3,35,3,223.6839279,224.6812781,224.6812781,224.6812781,224.6812781,224.6978825,225.6784945,225.6784945,z,1,0.5457948,1,1,2022-09-30_13h30.39.796,tutorial_4,2022.2.4,60.17368533,,,,,,
150,v,,,,,9,0,36,1,226.2439382,227.2413381,227.2413381,227.2413381,227.2413381,227.2580553,228.2383733,228.2383733,v,1,0.486405,1,1,2022-09-30_13h30.39.796,tutorial_4,2022.2.4,60.17368533,,,,,,
150,v,,,,,9,1,37,1,228.7535801,229.7508798,229.7508798,229.7508798,229.7508798,229.7676308,230.7477636,230.7477636,v,1,0.4682831,1,1,2022-09-30_13h30.39.796,tutorial_4,2022.2.4,60.17368533,,,,,,
-50,x,,,,,9,2,38,0,231.2473328,232.2445297,232.2445297,232.2445297,232.2445297,232.2608278,233.2418895,233.2418895,x,1,0.6988064,1,1,2022-09-30_13h30.39.796,tutorial_4,2022.2.4,60.17368533,,,,,,
-150,z,,,,,9,3,39,3,233.9562221,234.9538935,234.9538935,234.9538935,234.9538935,234.9701662,235.9512408,235.9512408,z,1,0.4601953,1,1,2022-09-30_13h30.39.796,tutorial_4,2022.2.4,60.17368533,,,,,,
-50,x,,,,,10,0,40,0,236.4329402,237.4304229,237.4304229,237.4304229,237.4304229,237.4469552,238.4274463,238.4274463,x,1,0.563283,1,1,2022-09-30_13h30.39.796,tutorial_4,2022.2.4,60.17368533,,,,,,
-150,z,,,,,10,1,41,3,239.0093354,240.0065689,240.0065689,240.0065689,240.0065689,240.0231811,241.0037242,241.0037242,z,1,0.4482325,1,1,2022-09-30_13h30.39.796,tutorial_4,2022.2.4,60.17368533,,,,,,
50,c,,,,,10,2,42,2,241.4694858,242.4664946,242.4664946,242.4664946,242.4664946,242.4830057,243.4637123,243.4637123,c,1,0.4292774,1,1,2022-09-30_13h30.39.796,tutorial_4,2022.2.4,60.17368533,,,,,,
-50,x,,,,,10,3,43,0,243.9125465,244.909612,244.909612,244.909612,244.909612,244.926193,245.9070683,245.9070683,x,1,0.5068487,1,1,2022-09-30_13h30.39.796,tutorial_4,2022.2.4,60.17368533,,,,,,
150,v,,,,,11,0,44,1,246.4391889,247.4366294,247.4366294,247.4366294,247.4366294,247.4530163,248.4334196,248.4334196,v,1,0.426038,1,1,2022-09-30_13h30.39.796,tutorial_4,2022.2.4,60.17368533,,,,,,
-150,z,,,,,11,1,45,3,248.8823092,249.8797819,249.8797819,249.8797819,249.8797819,249.8960508,250.8770274,250.8770274,z,1,0.4071086,1,1,2022-09-30_13h30.39.796,tutorial_4,2022.2.4,60.17368533,,,,,,
150,v,,,,,11,2,46,1,251.3091114,252.3067595,252.3067595,252.3067595,252.3067595,252.3229217,253.3038642,253.3038642,v,1,0.4644674,1,1,2022-09-30_13h30.39.796,tutorial_4,2022.2.4,60.17368533,,,,,,
-50,x,,,,,11,3,47,0,253.7860158,254.7829584,254.7829584,254.7829584,254.7829584,254.7994066,255.7803258,255.7803258,x,1,0.6666164,1,1,2022-09-30_13h30.39.796,tutorial_4,2022.2.4,60.17368533,,,,,,
