trials.thisRepN,trials.thisTrialN,trials.thisN,trials.thisIndex,num_distr,fixation.started,target.started,mouse.started,mouse.x,mouse.y,mouse.leftButton,mouse.midButton,mouse.rightButton,mouse.time,mouse.clicked_name,participant,session,date,expName,psychopyVersion,frameRate,
0,0,0,0,5,31.69085370004177,31.69085370004177,0.030753999948501587,[-0.23148148148148148],[-0.32407407407407407],[1],[0],[0],[2.1110139000229537],['target'],01,001,2022-09-29_17h00.18.301,Tutorial_3,2022.2.4,60.31494047587652,
1,0,1,0,5,33.826737500028685,33.826737500028685,0.026384300086647272,[0.1398148148148148],[0.32685185185185184],[1],[0],[0],[2.5403424999676645],['target'],01,001,2022-09-29_17h00.18.301,Tutorial_3,2022.2.4,60.31494047587652,
2,0,2,0,10,36.42798090004362,36.42798090004362,0.04811479989439249,[0.4444444444444444],[0.3175925925925926],[1],[0],[0],[2.305614900076762],['target'],01,001,2022-09-29_17h00.18.301,Tutorial_3,2022.2.4,60.31494047587652,
3,0,3,0,10,38.77650839998387,38.77650839998387,0.03800370008684695,[0.45555555555555555],[-0.44722222222222224],[1],[0],[0],[3.5449228999204934],['target'],01,001,2022-09-29_17h00.18.301,Tutorial_3,2022.2.4,60.31494047587652,
4,0,4,0,5,42.333843200001866,42.333843200001866,0.013337000040337443,[-0.3398148148148148],[0.24074074074074073],[1],[0],[0],[1.7947323999833316],['target'],01,001,2022-09-29_17h00.18.301,Tutorial_3,2022.2.4,60.31494047587652,
5,0,5,0,10,44.184104999993,44.184104999993,0.0424875000026077,[0.0824074074074074],[-0.33796296296296297],[1],[0],[0],[3.5413802000693977],['target'],01,001,2022-09-29_17h00.18.301,Tutorial_3,2022.2.4,60.31494047587652,
6,0,6,0,10,47.76623579999432,47.76623579999432,0.03386990004219115,[-0.13240740740740742],[-0.4842592592592593],[1],[0],[0],[3.283127900213003],['target'],01,001,2022-09-29_17h00.18.301,Tutorial_3,2022.2.4,60.31494047587652,
7,0,7,0,10,51.09811790008098,51.09811790008098,0.044168399879708886,[-0.12037037037037036],[0.41574074074074074],[1],[0],[0],[1.8111743000335991],['target'],01,001,2022-09-29_17h00.18.301,Tutorial_3,2022.2.4,60.31494047587652,
8,0,8,0,10,52.949116399977356,52.949116399977356,0.03215670003555715,[0.27870370370370373],[-0.16574074074074074],[1],[0],[0],[2.7037722000386566],['target'],01,001,2022-09-29_17h00.18.301,Tutorial_3,2022.2.4,60.31494047587652,
9,0,9,0,5,55.675300100119784,55.675300100119784,0.02192500000819564,[-0.14444444444444443],[-0.13055555555555556],[1],[0],[0],[1.2346306000836194],['target'],01,001,2022-09-29_17h00.18.301,Tutorial_3,2022.2.4,60.31494047587652,
10,0,10,0,5,56.94313190015964,56.94313190015964,0.024632100015878677,[0.13796296296296295],[-0.14074074074074075],[1],[0],[0],[1.4480128998402506],['target'],01,001,2022-09-29_17h00.18.301,Tutorial_3,2022.2.4,60.31494047587652,
11,0,11,0,5,58.422728799981996,58.422728799981996,0.025782200042158365,[0.22314814814814815],[0.10648148148148148],[1],[0],[0],[1.5629509999416769],['target'],01,001,2022-09-29_17h00.18.301,Tutorial_3,2022.2.4,60.31494047587652,
12,0,12,0,5,60.01875720010139,60.01875720010139,0.024298599921166897,[0.3138888888888889],[0.2101851851851852],[1],[0],[0],[1.315415299963206],['target'],01,001,2022-09-29_17h00.18.301,Tutorial_3,2022.2.4,60.31494047587652,
13,0,13,0,5,61.35877769999206,61.35877769999206,0.019522099988535047,[0.3111111111111111],[0.3138888888888889],[1],[0],[0],[1.2869565000291914],['target'],01,001,2022-09-29_17h00.18.301,Tutorial_3,2022.2.4,60.31494047587652,
14,0,14,0,10,62.69472060003318,62.69472060003318,0.040485099889338017,[0.032407407407407406],[0.06851851851851852],[1],[0],[0],[1.7473279000259936],['target'],01,001,2022-09-29_17h00.18.301,Tutorial_3,2022.2.4,60.31494047587652,
15,0,15,0,5,64.46984020015225,64.46984020015225,0.017862899927422404,[-0.26851851851851855],[0.032407407407407406],[1],[0],[0],[1.8343847000505775],['target'],01,001,2022-09-29_17h00.18.301,Tutorial_3,2022.2.4,60.31494047587652,
16,0,16,0,5,66.33455240004696,66.33455240004696,0.02368029998615384,[-0.16666666666666666],[-0.3037037037037037],[1],[0],[0],[2.4120050000492483],['target'],01,001,2022-09-29_17h00.18.301,Tutorial_3,2022.2.4,60.31494047587652,
17,0,17,0,10,68.80037169996649,68.80037169996649,0.04428639984689653,[0.4703703703703704],[0.24722222222222223],[1],[0],[0],[2.359756799880415],['target'],01,001,2022-09-29_17h00.18.301,Tutorial_3,2022.2.4,60.31494047587652,
18,0,18,0,10,71.20095930015668,71.20095930015668,0.032914699986577034,[-0.0787037037037037],[0.16574074074074074],[1],[0],[0],[1.6058912998996675],['target'],01,001,2022-09-29_17h00.18.301,Tutorial_3,2022.2.4,60.31494047587652,
19,0,19,0,10,72.85285890009254,72.85285890009254,0.038414099952206016,[-0.3907407407407407],[0.3712962962962963],[1],[0],[0],[1.7819052999839187],['target'],01,001,2022-09-29_17h00.18.301,Tutorial_3,2022.2.4,60.31494047587652,
20,0,20,0,5,74.65626540011726,74.65626540011726,0.020130899967625737,[0.12777777777777777],[0.4287037037037037],[1],[0],[0],[1.7190163000486791],['target'],01,001,2022-09-29_17h00.18.301,Tutorial_3,2022.2.4,60.31494047587652,
21,0,21,0,5,76.41530430014245,76.41530430014245,0.03447890002280474,[0.11666666666666667],[0.21296296296296297],[1],[0],[0],[1.9033800000324845],['target'],01,001,2022-09-29_17h00.18.301,Tutorial_3,2022.2.4,60.31494047587652,
22,0,22,0,10,78.36809300002642,78.36809300002642,0.04099030001088977,[0.053703703703703705],[0.31296296296296294],[1],[0],[0],[3.7252404000610113],['target'],01,001,2022-09-29_17h00.18.301,Tutorial_3,2022.2.4,60.31494047587652,
23,0,23,0,5,82.12124440004118,82.12124440004118,0.02154999994672835,[0.32222222222222224],[-0.20925925925925926],[1],[0],[0],[2.5643054000101984],['target'],01,001,2022-09-29_17h00.18.301,Tutorial_3,2022.2.4,60.31494047587652,
24,0,24,0,10,84.73358430014923,84.73358430014923,0.03738670004531741,[-0.21574074074074073],[0.25277777777777777],[1],[0],[0],[5.374539999989793],['target'],01,001,2022-09-29_17h00.18.301,Tutorial_3,2022.2.4,60.31494047587652,
25,0,25,0,5,90.1335583999753,90.1335583999753,0.022414200007915497,[0.387037037037037],[-0.03796296296296296],[1],[0],[0],[2.2817875999026],['target'],01,001,2022-09-29_17h00.18.301,Tutorial_3,2022.2.4,60.31494047587652,
26,0,26,0,10,92.46213510003872,92.46213510003872,0.03512239991687238,[-0.31203703703703706],[-0.0962962962962963],[1],[0],[0],[4.343030799878761],['target'],01,001,2022-09-29_17h00.18.301,Tutorial_3,2022.2.4,60.31494047587652,
27,0,27,0,5,96.83458150015213,96.83458150015213,0.021331099793314934,[-0.4564814814814815],[-0.027777777777777776],[1],[0],[0],[2.9132304000668228],['target'],01,001,2022-09-29_17h00.18.301,Tutorial_3,2022.2.4,60.31494047587652,
28,0,28,0,10,99.80407189996913,99.80407189996913,0.04722409998066723,[0.29074074074074074],[0.2111111111111111],[1],[0],[0],[2.8716428000479937],['target'],01,001,2022-09-29_17h00.18.301,Tutorial_3,2022.2.4,60.31494047587652,
29,0,29,0,10,102.723515199963,102.723515199963,0.03600709978491068,[-0.4222222222222222],[-0.41388888888888886],[1],[0],[0],[4.062167500145733],['target'],01,001,2022-09-29_17h00.18.301,Tutorial_3,2022.2.4,60.31494047587652,
30,0,30,0,10,106.82680650008842,106.82680650008842,0.043297800002619624,[0.044444444444444446],[0.07407407407407407],[1],[0],[0],[2.6598656000569463],['target'],01,001,2022-09-29_17h00.18.301,Tutorial_3,2022.2.4,60.31494047587652,
31,0,31,0,5,109.50721599999815,109.50721599999815,0.016281200107187033,[0.18703703703703703],[0.22870370370370371],[1],[0],[0],[1.4235306000337005],['target'],01,001,2022-09-29_17h00.18.301,Tutorial_3,2022.2.4,60.31494047587652,
32,0,32,0,5,110.96652929997072,110.96652929997072,0.02838600007817149,[-0.29907407407407405],[-0.017592592592592594],[1],[0],[0],[1.9756964000407606],['target'],01,001,2022-09-29_17h00.18.301,Tutorial_3,2022.2.4,60.31494047587652,
33,0,33,0,10,112.99685860006139,112.99685860006139,0.04113319981843233,[-0.2824074074074074],[-0.2074074074074074],[1],[0],[0],[3.772948799887672],['target'],01,001,2022-09-29_17h00.18.301,Tutorial_3,2022.2.4,60.31494047587652,
34,0,34,0,10,116.8137948999647,116.8137948999647,0.0386270999442786,[-0.16203703703703703],[-0.2851851851851852],[1],[0],[0],[2.082919199950993],['target'],01,001,2022-09-29_17h00.18.301,Tutorial_3,2022.2.4,60.31494047587652,
35,0,35,0,10,118.93769240006804,118.93769240006804,0.03482090006582439,[-0.32407407407407407],[-0.13333333333333333],[1],[0],[0],[3.050321100046858],['target'],01,001,2022-09-29_17h00.18.301,Tutorial_3,2022.2.4,60.31494047587652,
36,0,36,0,10,122.03111850004643,122.03111850004643,0.038939200108870864,[0.12037037037037036],[-0.04351851851851852],[1],[0],[0],[1.5161447001155466],['target'],01,001,2022-09-29_17h00.18.301,Tutorial_3,2022.2.4,60.31494047587652,
37,0,37,0,10,123.5947772001382,123.5947772001382,0.041282600024715066,[0.24074074074074073],[-0.425],[1],[0],[0],[3.3094117001164705],['target'],01,001,2022-09-29_17h00.18.301,Tutorial_3,2022.2.4,60.31494047587652,
38,0,38,0,5,126.93543089996092,126.93543089996092,0.0230211999733001,[0.2962962962962963],[-0.4203703703703704],[1],[0],[0],[7.5504092001356184],['target'],01,001,2022-09-29_17h00.18.301,Tutorial_3,2022.2.4,60.31494047587652,
39,0,39,0,10,134.52616280014627,134.52616280014627,0.03165389993228018,[0.41759259259259257],[-0.46296296296296297],[1],[0],[0],[4.997222000034526],['target'],01,001,2022-09-29_17h00.18.301,Tutorial_3,2022.2.4,60.31494047587652,
40,0,40,0,5,139.55314540001564,139.55314540001564,0.024877400137484074,[0.42314814814814816],[0.053703703703703705],[1],[0],[0],[2.8761652999091893],['target'],01,001,2022-09-29_17h00.18.301,Tutorial_3,2022.2.4,60.31494047587652,
41,0,41,0,10,142.47972110006958,142.47972110006958,0.03812139993533492,[-0.20092592592592592],[-0.1712962962962963],[1],[0],[0],[3.595360699808225],['target'],01,001,2022-09-29_17h00.18.301,Tutorial_3,2022.2.4,60.31494047587652,
42,0,42,0,5,146.1002571999561,146.1002571999561,0.024050500011071563,[-0.39444444444444443],[0.3611111111111111],[1],[0],[0],[2.794299399945885],['target'],01,001,2022-09-29_17h00.18.301,Tutorial_3,2022.2.4,60.31494047587652,
43,0,43,0,10,148.94520590011962,148.94520590011962,0.03950870013795793,[-0.06759259259259259],[0.3287037037037037],[1],[0],[0],[2.0813263000454754],['target'],01,001,2022-09-29_17h00.18.301,Tutorial_3,2022.2.4,60.31494047587652,
44,0,44,0,10,151.06527480017394,151.06527480017394,0.03187529998831451,[-0.3138888888888889],[0.14907407407407408],[1],[0],[0],[2.2057948999572545],['target'],01,001,2022-09-29_17h00.18.301,Tutorial_3,2022.2.4,60.31494047587652,
45,0,45,0,10,153.31101060006768,153.31101060006768,0.03366070007905364,[0.010185185185185186],[0.3111111111111111],[1],[0],[0],[1.9708442001137882],['target'],01,001,2022-09-29_17h00.18.301,Tutorial_3,2022.2.4,60.31494047587652,
46,0,46,0,10,155.32367800013162,155.32367800013162,0.03591640014201403,[-0.3648148148148148],[-0.15925925925925927],[1],[0],[0],[1.9854492000304163],['target'],01,001,2022-09-29_17h00.18.301,Tutorial_3,2022.2.4,60.31494047587652,
47,0,47,0,10,157.34278640011325,157.34278640011325,0.029938099905848503,[0.4027777777777778],[-0.2777777777777778],[1],[0],[0],[2.4393052998930216],['target'],01,001,2022-09-29_17h00.18.301,Tutorial_3,2022.2.4,60.31494047587652,
48,0,48,0,5,159.811774100177,159.811774100177,0.023497099988162518,[0.22592592592592592],[0.37407407407407406],[1],[0],[0],[2.4464991001877934],['target'],01,001,2022-09-29_17h00.18.301,Tutorial_3,2022.2.4,60.31494047587652,
49,0,49,0,10,162.30603120010346,162.30603120010346,0.03715910017490387,[-0.2824074074074074],[0.32407407407407407],[1],[0],[0],[2.033427899936214],['target'],01,001,2022-09-29_17h00.18.301,Tutorial_3,2022.2.4,60.31494047587652,
50,0,50,0,5,164.3665668000467,164.3665668000467,0.023617899976670742,[-0.19537037037037036],[0.041666666666666664],[1],[0],[0],[1.382743899943307],['target'],01,001,2022-09-29_17h00.18.301,Tutorial_3,2022.2.4,60.31494047587652,
51,0,51,0,5,165.77873530006036,165.77873530006036,0.024060900090262294,[0.21944444444444444],[-0.17314814814814813],[1],[0],[0],[1.9977541998960078],['target'],01,001,2022-09-29_17h00.18.301,Tutorial_3,2022.2.4,60.31494047587652,
52,0,52,0,10,167.82771920016967,167.82771920016967,0.04406860005110502,[0.14074074074074075],[0.2490740740740741],[1],[0],[0],[2.125834599835798],['target'],01,001,2022-09-29_17h00.18.301,Tutorial_3,2022.2.4,60.31494047587652,
53,0,53,0,10,170.02301290002652,170.02301290002652,0.0516788000240922,[-0.29444444444444445],[0.027777777777777776],[1],[0],[0],[1.7502683999482542],['target'],01,001,2022-09-29_17h00.18.301,Tutorial_3,2022.2.4,60.31494047587652,
54,0,54,0,5,171.80065000010654,171.80065000010654,0.02313499990850687,[-0.27685185185185185],[0.4324074074074074],[1],[0],[0],[3.211889000143856],['target'],01,001,2022-09-29_17h00.18.301,Tutorial_3,2022.2.4,60.31494047587652,
55,0,55,0,5,175.04805930005386,175.04805930005386,0.02899530017748475,[-0.17037037037037037],[0.11666666666666667],[1],[0],[0],[1.8917858998756856],['target'],01,001,2022-09-29_17h00.18.301,Tutorial_3,2022.2.4,60.31494047587652,
56,0,56,0,10,176.98639139998704,176.98639139998704,0.04004230001010001,[0.12407407407407407],[-0.062037037037037036],[1],[0],[0],[2.1811280001420528],['target'],01,001,2022-09-29_17h00.18.301,Tutorial_3,2022.2.4,60.31494047587652,
57,0,57,0,10,179.2288039000705,179.2288039000705,0.05066489987075329,[0.14907407407407408],[0.18703703703703703],[1],[0],[0],[1.7369035999290645],['target'],01,001,2022-09-29_17h00.18.301,Tutorial_3,2022.2.4,60.31494047587652,
58,0,58,0,5,180.99197680014186,180.99197680014186,0.0272517001722008,[-0.2898148148148148],[0.30092592592592593],[1],[0],[0],[2.858815599931404],['target'],01,001,2022-09-29_17h00.18.301,Tutorial_3,2022.2.4,60.31494047587652,
59,0,59,0,5,183.88321780017577,183.88321780017577,0.024698599940165877,[0.3787037037037037],[0.26296296296296295],[1],[0],[0],[2.0450621000491083],['target'],01,001,2022-09-29_17h00.18.301,Tutorial_3,2022.2.4,60.31494047587652,
60,0,60,0,5,185.95769140007906,185.95769140007906,0.02367449994198978,[0.2722222222222222],[0.1],[1],[0],[0],[1.5313009000383317],['target'],01,001,2022-09-29_17h00.18.301,Tutorial_3,2022.2.4,60.31494047587652,
61,0,61,0,10,187.54121960001066,187.54121960001066,0.03988509997725487,[-0.1574074074074074],[-0.2953703703703704],[1],[0],[0],[3.028252199990675],['target'],01,001,2022-09-29_17h00.18.301,Tutorial_3,2022.2.4,60.31494047587652,
62,0,62,0,10,190.61049810005352,190.61049810005352,0.03206060011871159,[-0.24722222222222223],[-0.012962962962962963],[1],[0],[0],[2.6712758000940084],['target'],01,001,2022-09-29_17h00.18.301,Tutorial_3,2022.2.4,60.31494047587652,
63,0,63,0,5,193.30700190016069,193.30700190016069,0.027293199906125665,[-0.487962962962963],[0.325],[1],[0],[0],[2.0940723998937756],['target'],01,001,2022-09-29_17h00.18.301,Tutorial_3,2022.2.4,60.31494047587652,
64,0,64,0,5,195.42143089999445,195.42143089999445,0.015312100062146783,[-0.41574074074074074],[0.14722222222222223],[1],[0],[0],[1.4574960998725146],['target'],01,001,2022-09-29_17h00.18.301,Tutorial_3,2022.2.4,60.31494047587652,
65,0,65,0,10,196.92041900008917,196.92041900008917,0.02955779992043972,[-0.41574074074074074],[0.14722222222222223],[1],[0],[0],[0.981313900090754],['target'],01,001,2022-09-29_17h00.18.301,Tutorial_3,2022.2.4,60.31494047587652,
66,0,66,0,10,197.9228077000007,197.9228077000007,0.025068999966606498,[-0.4583333333333333],[0.13425925925925927],[1],[0],[0],[1.898488000035286],['target'],01,001,2022-09-29_17h00.18.301,Tutorial_3,2022.2.4,60.31494047587652,
67,0,67,0,10,199.85309790004976,199.85309790004976,0.02595759998075664,[-0.13425925925925927],[0.12962962962962962],[1],[0],[0],[3.412163200089708],['target'],01,001,2022-09-29_17h00.18.301,Tutorial_3,2022.2.4,60.31494047587652,
68,0,68,0,10,203.31192760006525,203.31192760006525,0.03905529994517565,[-0.2962962962962963],[0.08148148148148149],[1],[0],[0],[1.6001517998520285],['target'],01,001,2022-09-29_17h00.18.301,Tutorial_3,2022.2.4,60.31494047587652,
69,0,69,0,5,204.9365231001284,204.9365231001284,0.0205765999853611,[0.08888888888888889],[-0.14537037037037037],[1],[0],[0],[2.4493680000305176],['target'],01,001,2022-09-29_17h00.18.301,Tutorial_3,2022.2.4,60.31494047587652,
70,0,70,0,5,207.42098290007561,207.42098290007561,0.02613890008069575,[-0.013888888888888888],[0.3055555555555556],[1],[0],[0],[2.0941614999901503],['target'],01,001,2022-09-29_17h00.18.301,Tutorial_3,2022.2.4,60.31494047587652,
71,0,71,0,10,209.55677140015177,209.55677140015177,0.03142910008318722,[-0.30092592592592593],[-0.2953703703703704],[1],[0],[0],[2.437766300048679],['target'],01,001,2022-09-29_17h00.18.301,Tutorial_3,2022.2.4,60.31494047587652,
72,0,72,0,10,212.0390780000016,212.0390780000016,0.03782379999756813,[-0.16203703703703703],[0.4564814814814815],[1],[0],[0],[5.789502300089225],['target'],01,001,2022-09-29_17h00.18.301,Tutorial_3,2022.2.4,60.31494047587652,
73,0,73,0,5,217.85362610011362,217.85362610011362,0.022764499997720122,[0.17314814814814813],[-0.42962962962962964],[1],[0],[0],[3.4279771000146866],['target'],01,001,2022-09-29_17h00.18.301,Tutorial_3,2022.2.4,60.31494047587652,
74,0,74,0,5,221.30839590006508,221.30839590006508,0.021562800044193864,[0.362962962962963],[0.06296296296296296],[1],[0],[0],[1.749682400142774],['target'],01,001,2022-09-29_17h00.18.301,Tutorial_3,2022.2.4,60.31494047587652,
75,0,75,0,10,223.11319800000638,223.11319800000638,0.047233400167897344,[0.0824074074074074],[0.3907407407407407],[1],[0],[0],[2.273443400161341],['target'],01,001,2022-09-29_17h00.18.301,Tutorial_3,2022.2.4,60.31494047587652,
76,0,76,0,5,225.416125100106,225.416125100106,0.0218297999817878,[0.041666666666666664],[-0.33055555555555555],[1],[0],[0],[2.647417000029236],['target'],01,001,2022-09-29_17h00.18.301,Tutorial_3,2022.2.4,60.31494047587652,
77,0,77,0,10,228.1111062001437,228.1111062001437,0.038221800001338124,[0.2611111111111111],[-0.1824074074074074],[1],[0],[0],[2.4314667999278754],['target'],01,001,2022-09-29_17h00.18.301,Tutorial_3,2022.2.4,60.31494047587652,
78,0,78,0,5,230.57082450017333,230.57082450017333,0.024012800073251128,[-0.2601851851851852],[-0.3888888888888889],[1],[0],[0],[2.7941745999269187],['target'],01,001,2022-09-29_17h00.18.301,Tutorial_3,2022.2.4,60.31494047587652,
79,0,79,0,5,233.3962614000775,233.3962614000775,0.025263399817049503,[-0.18425925925925926],[0.09814814814814815],[1],[0],[0],[1.7802300998009741],['target'],01,001,2022-09-29_17h00.18.301,Tutorial_3,2022.2.4,60.31494047587652,
80,0,80,0,5,235.2083127000369,235.2083127000369,0.023845700081437826,[0.09722222222222222],[-0.16296296296296298],[1],[0],[0],[2.2297985998447984],['target'],01,001,2022-09-29_17h00.18.301,Tutorial_3,2022.2.4,60.31494047587652,
81,0,81,0,10,237.48517770017497,237.48517770017497,0.03874890017323196,[0.3453703703703704],[0.15],[1],[0],[0],[1.9319496001116931],['target'],01,001,2022-09-29_17h00.18.301,Tutorial_3,2022.2.4,60.31494047587652,
82,0,82,0,5,239.441911800066,239.441911800066,0.021445200080052018,[-0.3925925925925926],[-0.09351851851851851],[1],[0],[0],[2.3484781000297517],['target'],01,001,2022-09-29_17h00.18.301,Tutorial_3,2022.2.4,60.31494047587652,
83,0,83,0,10,241.8396764001809,241.8396764001809,0.03637670003809035,[0.4962962962962963],[0.3787037037037037],[1],[0],[0],[3.26463139988482],['target'],01,001,2022-09-29_17h00.18.301,Tutorial_3,2022.2.4,60.31494047587652,
84,0,84,0,5,245.1361901999917,245.1361901999917,0.02273199986666441,[-0.09537037037037037],[-0.12685185185185185],[1],[0],[0],[1.5663113999180496],['target'],01,001,2022-09-29_17h00.18.301,Tutorial_3,2022.2.4,60.31494047587652,
85,0,85,0,5,246.7280078001786,246.7280078001786,0.024147000163793564,[0.36574074074074076],[0.36203703703703705],[1],[0],[0],[1.5976462999824435],['target'],01,001,2022-09-29_17h00.18.301,Tutorial_3,2022.2.4,60.31494047587652,
86,0,86,0,5,248.3605879000388,248.3605879000388,0.02673229994252324,[-0.06018518518518518],[0.053703703703703705],[1],[0],[0],[1.729235399980098],['target'],01,001,2022-09-29_17h00.18.301,Tutorial_3,2022.2.4,60.31494047587652,
87,0,87,0,10,250.1391102001071,250.1391102001071,0.036741199903190136,[0.30462962962962964],[0.11851851851851852],[1],[0],[0],[1.9015192999504507],['target'],01,001,2022-09-29_17h00.18.301,Tutorial_3,2022.2.4,60.31494047587652,
88,0,88,0,10,252.08332370012067,252.08332370012067,0.04124090005643666,[0.4888888888888889],[-0.14444444444444443],[1],[0],[0],[1.9116533999331295],['target'],01,001,2022-09-29_17h00.18.301,Tutorial_3,2022.2.4,60.31494047587652,
89,0,89,0,10,254.03842620016076,254.03842620016076,0.032118799863383174,[0.3212962962962963],[0.23425925925925925],[1],[0],[0],[2.3047650000080466],['target'],01,001,2022-09-29_17h00.18.301,Tutorial_3,2022.2.4,60.31494047587652,
90,0,90,0,5,256.3666850000154,256.3666850000154,0.023179000010713935,[-0.17592592592592593],[0.2361111111111111],[1],[0],[0],[1.6813064001034945],['target'],01,001,2022-09-29_17h00.18.301,Tutorial_3,2022.2.4,60.31494047587652,
91,0,91,0,5,258.0771302001085,258.0771302001085,0.023596500046551228,[0.175],[0.21481481481481482],[1],[0],[0],[1.582354199839756],['target'],01,001,2022-09-29_17h00.18.301,Tutorial_3,2022.2.4,60.31494047587652,
92,0,92,0,10,259.7101839000825,259.7101839000825,0.03571419999934733,[-0.22962962962962963],[-0.004629629629629629],[1],[0],[0],[1.5198222000617534],['target'],01,001,2022-09-29_17h00.18.301,Tutorial_3,2022.2.4,60.31494047587652,
93,0,93,0,10,261.2631065000314,261.2631065000314,0.03387609985657036,[-0.07037037037037037],[0.2490740740740741],[1],[0],[0],[1.6377477999776602],['target'],01,001,2022-09-29_17h00.18.301,Tutorial_3,2022.2.4,60.31494047587652,
94,0,94,0,5,262.9375110999681,262.9375110999681,0.02759329997934401,[0.11203703703703703],[-0.3712962962962963],[1],[0],[0],[1.6432579001411796],['target'],01,001,2022-09-29_17h00.18.301,Tutorial_3,2022.2.4,60.31494047587652,
95,0,95,0,10,264.65001570014283,264.65001570014283,0.05173749988898635,[0.3712962962962963],[0.33425925925925926],[1],[0],[0],[2.151934999972582],['target'],01,001,2022-09-29_17h00.18.301,Tutorial_3,2022.2.4,60.31494047587652,
96,0,96,0,5,266.8289634999819,266.8289634999819,0.028629499953240156,[-0.18055555555555555],[0.49537037037037035],[1],[0],[0],[3.8374476998578757],['target'],01,001,2022-09-29_17h00.18.301,Tutorial_3,2022.2.4,60.31494047587652,
97,0,97,0,5,270.6998446001671,270.6998446001671,0.027572800172492862,[-0.13703703703703704],[0.022222222222222223],[1],[0],[0],[1.90966030000709],['target'],01,001,2022-09-29_17h00.18.301,Tutorial_3,2022.2.4,60.31494047587652,
98,0,98,0,5,272.6442160999868,272.6442160999868,0.026702499948441982,[-0.287962962962963],[0.2574074074074074],[1],[0],[0],[1.9425538999494165],['target'],01,001,2022-09-29_17h00.18.301,Tutorial_3,2022.2.4,60.31494047587652,
99,0,99,0,5,274.61694760015234,274.61694760015234,0.02367569995112717,[0.11296296296296296],[-0.45740740740740743],[1],[0],[0],[2.414003200130537],['target'],01,001,2022-09-29_17h00.18.301,Tutorial_3,2022.2.4,60.31494047587652,
100,0,100,0,5,277.060450399993,277.060450399993,0.0246673000510782,[-0.4564814814814815],[-0.014814814814814815],[1],[0],[0],[1.8463415999431163],['target'],01,001,2022-09-29_17h00.18.301,Tutorial_3,2022.2.4,60.31494047587652,
101,0,101,0,10,278.95948359998874,278.95948359998874,0.043214499950408936,[-0.26851851851851855],[0.3509259259259259],[1],[0],[0],[1.9115206999704242],['target'],01,001,2022-09-29_17h00.18.301,Tutorial_3,2022.2.4,60.31494047587652,
102,0,102,0,10,280.911857200088,280.911857200088,0.03263989998959005,[-0.38796296296296295],[-0.42777777777777776],[1],[0],[0],[3.1680695000104606],['target'],01,001,2022-09-29_17h00.18.301,Tutorial_3,2022.2.4,60.31494047587652,
103,0,103,0,5,284.1133851001505,284.1133851001505,0.02559129986912012,[0.44351851851851853],[0.387037037037037],[1],[0],[0],[2.5110581999178976],['target'],01,001,2022-09-29_17h00.18.301,Tutorial_3,2022.2.4,60.31494047587652,
104,0,104,0,10,286.66963350004517,286.66963350004517,0.03667839989066124,[-0.12777777777777777],[0.3388888888888889],[1],[0],[0],[2.5827342998236418],['target'],01,001,2022-09-29_17h00.18.301,Tutorial_3,2022.2.4,60.31494047587652,
105,0,105,0,10,289.2905078001786,289.2905078001786,0.03340620012022555,[-0.4898148148148148],[0.05648148148148148],[1],[0],[0],[2.4862401999998838],['target'],01,001,2022-09-29_17h00.18.301,Tutorial_3,2022.2.4,60.31494047587652,
106,0,106,0,10,291.83001479995437,291.83001479995437,0.0430605998262763,[0.262037037037037],[-0.006481481481481481],[1],[0],[0],[3.0588100000750273],['target'],01,001,2022-09-29_17h00.18.301,Tutorial_3,2022.2.4,60.31494047587652,
107,0,107,0,5,294.91035969997756,294.91035969997756,0.022820200072601438,[-0.04722222222222222],[-0.17962962962962964],[1],[0],[0],[1.9652984999120235],['target'],01,001,2022-09-29_17h00.18.301,Tutorial_3,2022.2.4,60.31494047587652,
108,0,108,0,5,296.9140300999861,296.9140300999861,0.030666100094094872,[0.2657407407407407],[-0.23333333333333334],[1],[0],[0],[2.0070865999441594],['target'],01,001,2022-09-29_17h00.18.301,Tutorial_3,2022.2.4,60.31494047587652,
109,0,109,0,10,298.9826537000481,298.9826537000481,0.050969399977475405,[0.4425925925925926],[-0.26296296296296295],[1],[0],[0],[1.9863739002030343],['target'],01,001,2022-09-29_17h00.18.301,Tutorial_3,2022.2.4,60.31494047587652,
110,0,110,0,10,301.0177486001048,301.0177486001048,0.043599900091066957,[0.11018518518518519],[-0.4361111111111111],[1],[0],[0],[3.789163399953395],['target'],01,001,2022-09-29_17h00.18.301,Tutorial_3,2022.2.4,60.31494047587652,
111,0,111,0,10,304.85903730010614,304.85903730010614,0.04344390006735921,[0.4324074074074074],[0.041666666666666664],[1],[0],[0],[1.7621693999972194],['target'],01,001,2022-09-29_17h00.18.301,Tutorial_3,2022.2.4,60.31494047587652,
112,0,112,0,5,306.6459468000103,306.6459468000103,0.022142200032249093,[-0.42685185185185187],[0.075],[1],[0],[0],[2.1316490001045167],['target'],01,001,2022-09-29_17h00.18.301,Tutorial_3,2022.2.4,60.31494047587652,
113,0,113,0,5,308.80821570008993,308.80821570008993,0.024305099854245782,[-0.06851851851851852],[-0.2611111111111111],[1],[0],[0],[3.509230599971488],['target'],01,001,2022-09-29_17h00.18.301,Tutorial_3,2022.2.4,60.31494047587652,
114,0,114,0,10,312.36404819996096,312.36404819996096,0.03628319990821183,[-0.3287037037037037],[-0.16203703703703703],[1],[0],[0],[2.1510451999492943],['target'],01,001,2022-09-29_17h00.18.301,Tutorial_3,2022.2.4,60.31494047587652,
115,0,115,0,10,314.55056820018217,314.55056820018217,0.031676300102844834,[0.3712962962962963],[0.13703703703703704],[1],[0],[0],[2.6049138999078423],['target'],01,001,2022-09-29_17h00.18.301,Tutorial_3,2022.2.4,60.31494047587652,
116,0,116,0,5,317.1852657001,317.1852657001,0.022882899967953563,[0.08796296296296297],[0.36018518518518516],[1],[0],[0],[2.3299214001744986],['target'],01,001,2022-09-29_17h00.18.301,Tutorial_3,2022.2.4,60.31494047587652,
117,0,117,0,10,319.5533897001296,319.5533897001296,0.02946009999141097,[-0.44351851851851853],[0.001851851851851852],[1],[0],[0],[2.124895100016147],['target'],01,001,2022-09-29_17h00.18.301,Tutorial_3,2022.2.4,60.31494047587652,
118,0,118,0,10,321.72246420010924,321.72246420010924,0.03593399981036782,[-0.3472222222222222],[0.3287037037037037],[1],[0],[0],[2.1345271000172943],['target'],01,001,2022-09-29_17h00.18.301,Tutorial_3,2022.2.4,60.31494047587652,
119,0,119,0,5,323.8817147000227,323.8817147000227,0.024103399831801653,[-0.08703703703703704],[0.3472222222222222],[1],[0],[0],[1.7477442000526935],['target'],01,001,2022-09-29_17h00.18.301,Tutorial_3,2022.2.4,60.31494047587652,
120,0,120,0,10,325.67487350013107,325.67487350013107,0.03637910005636513,[-0.037037037037037035],[0.3388888888888889],[1],[0],[0],[1.5360894000623375],['target'],01,001,2022-09-29_17h00.18.301,Tutorial_3,2022.2.4,60.31494047587652,
121,0,121,0,10,327.2573254001327,327.2573254001327,0.0362164000980556,[0.32222222222222224],[-0.38055555555555554],[1],[0],[0],[3.962242899928242],['target'],01,001,2022-09-29_17h00.18.301,Tutorial_3,2022.2.4,60.31494047587652,
122,0,122,0,5,331.24232250009663,331.24232250009663,0.020120600005611777,[-0.22592592592592592],[-0.3425925925925926],[1],[0],[0],[2.6661792998202145],['target'],01,001,2022-09-29_17h00.18.301,Tutorial_3,2022.2.4,60.31494047587652,
123,0,123,0,5,333.9404317000881,333.9404317000881,0.025016400031745434,[0.08148148148148149],[0.43333333333333335],[1],[0],[0],[3.1095913001336157],['target'],01,001,2022-09-29_17h00.18.301,Tutorial_3,2022.2.4,60.31494047587652,
124,0,124,0,10,337.0963179001119,337.0963179001119,0.035747299902141094,[-0.24537037037037038],[-0.09166666666666666],[1],[0],[0],[2.003266300074756],['target'],01,001,2022-09-29_17h00.18.301,Tutorial_3,2022.2.4,60.31494047587652,
125,0,125,0,10,339.13459090003744,339.13459090003744,0.0276682002004236,[0.1962962962962963],[0.10092592592592593],[1],[0],[0],[2.39037899998948],['target'],01,001,2022-09-29_17h00.18.301,Tutorial_3,2022.2.4,60.31494047587652,
126,0,126,0,5,341.5387679999694,341.5387679999694,0.017730599967762828,[-0.275],[0.17222222222222222],[1],[0],[0],[1.7583814999088645],['target'],01,001,2022-09-29_17h00.18.301,Tutorial_3,2022.2.4,60.31494047587652,
127,0,127,0,5,343.3329535999801,343.3329535999801,0.024463600013405085,[-0.11203703703703703],[-0.4388888888888889],[1],[0],[0],[3.1253865999169648],['target'],01,001,2022-09-29_17h00.18.301,Tutorial_3,2022.2.4,60.31494047587652,
128,0,128,0,5,346.4865378001705,346.4865378001705,0.023939199978485703,[0.48055555555555557],[0.47314814814814815],[1],[0],[0],[3.4597666000481695],['target'],01,001,2022-09-29_17h00.18.301,Tutorial_3,2022.2.4,60.31494047587652,
129,0,129,0,5,349.9797752001323,349.9797752001323,0.025162900099530816,[0.4351851851851852],[0.3509259259259259],[1],[0],[0],[1.5136484999675304],['target'],01,001,2022-09-29_17h00.18.301,Tutorial_3,2022.2.4,60.31494047587652,
130,0,130,0,5,351.5229289000854,351.5229289000854,0.024353899993002415,[0.4925925925925926],[0.23703703703703705],[1],[0],[0],[1.8145433000754565],['target'],01,001,2022-09-29_17h00.18.301,Tutorial_3,2022.2.4,60.31494047587652,
131,0,131,0,10,353.3898712999653,353.3898712999653,0.03864269983023405,[0.3712962962962963],[-0.012037037037037037],[1],[0],[0],[2.0666590000037104],['target'],01,001,2022-09-29_17h00.18.301,Tutorial_3,2022.2.4,60.31494047587652,
132,0,132,0,10,355.48752560000867,355.48752560000867,0.029257400194182992,[0.3074074074074074],[-0.3925925925925926],[1],[0],[0],[3.0872850997839123],['target'],01,001,2022-09-29_17h00.18.301,Tutorial_3,2022.2.4,60.31494047587652,
133,0,133,0,5,358.59920950001106,358.59920950001106,0.019353499868884683,[0.0712962962962963],[0.011111111111111112],[1],[0],[0],[1.486498499987647],['target'],01,001,2022-09-29_17h00.18.301,Tutorial_3,2022.2.4,60.31494047587652,
134,0,134,0,10,360.1322234000545,360.1322234000545,0.03505500010214746,[-0.03518518518518519],[0.22314814814814815],[1],[0],[0],[1.7702350001782179],['target'],01,001,2022-09-29_17h00.18.301,Tutorial_3,2022.2.4,60.31494047587652,
135,0,135,0,5,361.92474390007555,361.92474390007555,0.02011849987320602,[0.2074074074074074],[-0.09351851851851851],[1],[0],[0],[1.7515625997912139],['target'],01,001,2022-09-29_17h00.18.301,Tutorial_3,2022.2.4,60.31494047587652,
136,0,136,0,5,363.7102679000236,363.7102679000236,0.02455780003219843,[-0.08703703703703704],[0.001851851851851852],[1],[0],[0],[1.3307007998228073],['target'],01,001,2022-09-29_17h00.18.301,Tutorial_3,2022.2.4,60.31494047587652,
137,0,137,0,5,365.07034209999256,365.07034209999256,0.023293200181797147,[-0.040740740740740744],[0.32685185185185184],[1],[0],[0],[1.5496271001175046],['target'],01,001,2022-09-29_17h00.18.301,Tutorial_3,2022.2.4,60.31494047587652,
138,0,138,0,10,366.6657871999778,366.6657871999778,0.03553029987961054,[-0.1574074074074074],[-0.287962962962963],[1],[0],[0],[2.4499705999623984],['target'],01,001,2022-09-29_17h00.18.301,Tutorial_3,2022.2.4,60.31494047587652,
139,0,139,0,5,369.1244668001309,369.1244668001309,0.01150879985652864,[0.11203703703703703],[-0.09814814814814815],[1],[0],[0],[1.5644400001037866],['target'],01,001,2022-09-29_17h00.18.301,Tutorial_3,2022.2.4,60.31494047587652,
140,0,140,0,10,370.7365054001566,370.7365054001566,0.034746000077575445,[0.48148148148148145],[0.48703703703703705],[1],[0],[0],[6.173969599884003],['target'],01,001,2022-09-29_17h00.18.301,Tutorial_3,2022.2.4,60.31494047587652,
141,0,141,0,5,376.93474419997074,376.93474419997074,0.02028029994107783,[-0.12685185185185185],[-0.31666666666666665],[1],[0],[0],[2.5659112001303583],['target'],01,001,2022-09-29_17h00.18.301,Tutorial_3,2022.2.4,60.31494047587652,
142,0,142,0,10,379.5499252001755,379.5499252001755,0.038470900151878595,[0.19074074074074074],[0.21666666666666667],[1],[0],[0],[2.065827100072056],['target'],01,001,2022-09-29_17h00.18.301,Tutorial_3,2022.2.4,60.31494047587652,
143,0,143,0,10,381.6551471001003,381.6551471001003,0.031632199883461,[-0.1259259259259259],[-0.4083333333333333],[1],[0],[0],[3.6845799998845905],['target'],01,001,2022-09-29_17h00.18.301,Tutorial_3,2022.2.4,60.31494047587652,
144,0,144,0,10,385.3784574000165,385.3784574000165,0.032070100074633956,[-0.287962962962963],[-0.1962962962962963],[1],[0],[0],[1.922315000090748],['target'],01,001,2022-09-29_17h00.18.301,Tutorial_3,2022.2.4,60.31494047587652,
145,0,145,0,5,387.3241215001326,387.3241215001326,0.021388599881902337,[-0.3972222222222222],[0.13425925925925927],[1],[0],[0],[2.1821224000304937],['target'],01,001,2022-09-29_17h00.18.301,Tutorial_3,2022.2.4,60.31494047587652,
146,0,146,0,5,389.52877810015343,389.52877810015343,0.016791600035503507,[0.3611111111111111],[0.2064814814814815],[1],[0],[0],[2.653025599895045],['target'],01,001,2022-09-29_17h00.18.301,Tutorial_3,2022.2.4,60.31494047587652,
147,0,147,0,5,392.22195320017636,392.22195320017636,0.03087939997203648,[0.4648148148148148],[0.16111111111111112],[1],[0],[0],[1.6082741999998689],['target'],01,001,2022-09-29_17h00.18.301,Tutorial_3,2022.2.4,60.31494047587652,
148,0,148,0,5,393.8604764000047,393.8604764000047,0.022835100069642067,[-0.20833333333333334],[0.18796296296296297],[1],[0],[0],[1.9644615000579506],['target'],01,001,2022-09-29_17h00.18.301,Tutorial_3,2022.2.4,60.31494047587652,
149,0,149,0,5,395.85595430014655,395.85595430014655,0.0253218999132514,[-0.030555555555555555],[0.42407407407407405],[1],[0],[0],[1.7470716000534594],['target'],01,001,2022-09-29_17h00.18.301,Tutorial_3,2022.2.4,60.31494047587652,
150,0,150,0,10,397.6475401001517,397.6475401001517,0.03413889999501407,[-0.35555555555555557],[-0.29259259259259257],[1],[0],[0],[2.6852690998930484],['target'],01,001,2022-09-29_17h00.18.301,Tutorial_3,2022.2.4,60.31494047587652,
151,0,151,0,10,400.3700304001104,400.3700304001104,0.02989180013537407,[0.4740740740740741],[-0.35555555555555557],[1],[0],[0],[2.106813000049442],['target'],01,001,2022-09-29_17h00.18.301,Tutorial_3,2022.2.4,60.31494047587652,
152,0,152,0,10,402.51193700009026,402.51193700009026,0.03411000012420118,[0.15648148148148147],[-0.032407407407407406],[1],[0],[0],[2.1033377998974174],['target'],01,001,2022-09-29_17h00.18.301,Tutorial_3,2022.2.4,60.31494047587652,
153,0,153,0,5,404.6436400001403,404.6436400001403,0.021235600113868713,[0.09351851851851851],[-0.1175925925925926],[1],[0],[0],[1.5011762001086026],['target'],01,001,2022-09-29_17h00.18.301,Tutorial_3,2022.2.4,60.31494047587652,
154,0,154,0,10,406.1903295000084,406.1903295000084,0.032809399999678135,[-0.23981481481481481],[-0.37222222222222223],[1],[0],[0],[2.885857099900022],['target'],01,001,2022-09-29_17h00.18.301,Tutorial_3,2022.2.4,60.31494047587652,
155,0,155,0,10,409.11209619999863,409.11209619999863,0.03316959994845092,[0.36666666666666664],[0.4648148148148148],[1],[0],[0],[4.845138699980453],['target'],01,001,2022-09-29_17h00.18.301,Tutorial_3,2022.2.4,60.31494047587652,
156,0,156,0,10,413.999496600125,413.999496600125,0.035939899971708655,[0.46944444444444444],[0.4722222222222222],[1],[0],[0],[1.9855837000068277],['target'],01,001,2022-09-29_17h00.18.301,Tutorial_3,2022.2.4,60.31494047587652,
157,0,157,0,10,416.0310396000277,416.0310396000277,0.03371890005655587,[0.39814814814814814],[-0.46574074074074073],[1],[0],[0],[2.817284000106156],['target'],01,001,2022-09-29_17h00.18.301,Tutorial_3,2022.2.4,60.31494047587652,
158,0,158,0,5,418.86967280018143,418.86967280018143,0.02111140009947121,[0.2111111111111111],[-0.36018518518518516],[1],[0],[0],[1.751044100150466],['target'],01,001,2022-09-29_17h00.18.301,Tutorial_3,2022.2.4,60.31494047587652,
159,0,159,0,10,420.6621365000028,420.6621365000028,0.03157410002313554,[-0.24074074074074073],[-0.026851851851851852],[1],[0],[0],[2.2385720000602305],['target'],01,001,2022-09-29_17h00.18.301,Tutorial_3,2022.2.4,60.31494047587652,
160,0,160,0,5,422.9260863000527,422.9260863000527,0.0199068000074476,[0.49537037037037035],[0.2675925925925926],[1],[0],[0],[1.984813699964434],['target'],01,001,2022-09-29_17h00.18.301,Tutorial_3,2022.2.4,60.31494047587652,
161,0,161,0,5,424.94715300016105,424.94715300016105,0.028459900058805943,[-0.3287037037037037],[-0.3648148148148148],[1],[0],[0],[2.956492400029674],['target'],01,001,2022-09-29_17h00.18.301,Tutorial_3,2022.2.4,60.31494047587652,
162,0,162,0,10,427.95158160012215,427.95158160012215,0.03664429998025298,[-0.08055555555555556],[0.12222222222222222],[1],[0],[0],[2.1671889000572264],['target'],01,001,2022-09-29_17h00.18.301,Tutorial_3,2022.2.4,60.31494047587652,
163,0,163,0,5,430.1432533999905,430.1432533999905,0.02335879998281598,[0.4527777777777778],[0.29907407407407405],[1],[0],[0],[1.9147231001406908],['target'],01,001,2022-09-29_17h00.18.301,Tutorial_3,2022.2.4,60.31494047587652,
164,0,164,0,5,432.09297240013257,432.09297240013257,0.027247099904343486,[0.21388888888888888],[-0.24722222222222223],[1],[0],[0],[3.0910171000286937],['target'],01,001,2022-09-29_17h00.18.301,Tutorial_3,2022.2.4,60.31494047587652,
165,0,165,0,10,435.2265550000593,435.2265550000593,0.03503579995594919,[-0.04537037037037037],[0.25462962962962965],[1],[0],[0],[1.952300600009039],['target'],01,001,2022-09-29_17h00.18.301,Tutorial_3,2022.2.4,60.31494047587652,
166,0,166,0,5,437.2094007001724,437.2094007001724,0.026919599855318666,[-0.03148148148148148],[-0.2962962962962963],[1],[0],[0],[2.044029099866748],['target'],01,001,2022-09-29_17h00.18.301,Tutorial_3,2022.2.4,60.31494047587652,
167,0,167,0,5,439.2866167000029,439.2866167000029,0.022121999878436327,[-0.14074074074074075],[0.49074074074074076],[1],[0],[0],[2.4316295001190156],['target'],01,001,2022-09-29_17h00.18.301,Tutorial_3,2022.2.4,60.31494047587652,
168,0,168,0,10,441.76507490011863,441.76507490011863,0.037479500053450465,[-0.45],[-0.1425925925925926],[1],[0],[0],[1.850073500070721],['target'],01,001,2022-09-29_17h00.18.301,Tutorial_3,2022.2.4,60.31494047587652,
169,0,169,0,10,443.6510336000938,443.6510336000938,0.0292881999630481,[-0.09074074074074075],[0.10555555555555556],[1],[0],[0],[1.6260519998613745],['target'],01,001,2022-09-29_17h00.18.301,Tutorial_3,2022.2.4,60.31494047587652,
170,0,170,0,10,445.31597460014746,445.31597460014746,0.032868900103494525,[-0.49722222222222223],[0.22962962962962963],[1],[0],[0],[2.0048352000303566],['target'],01,001,2022-09-29_17h00.18.301,Tutorial_3,2022.2.4,60.31494047587652,
171,0,171,0,5,447.3452048001345,447.3452048001345,0.023200300056487322,[-0.4083333333333333],[-0.33611111111111114],[1],[0],[0],[1.9646395000163466],['target'],01,001,2022-09-29_17h00.18.301,Tutorial_3,2022.2.4,60.31494047587652,
172,0,172,0,10,449.3599877001252,449.3599877001252,0.03761200001463294,[-0.17685185185185184],[-0.4759259259259259],[1],[0],[0],[2.000372299924493],['target'],01,001,2022-09-29_17h00.18.301,Tutorial_3,2022.2.4,60.31494047587652,
173,0,173,0,5,451.3868446999695,451.3868446999695,0.02460860018618405,[0.3333333333333333],[-0.14907407407407408],[1],[0],[0],[1.6976531001273543],['target'],01,001,2022-09-29_17h00.18.301,Tutorial_3,2022.2.4,60.31494047587652,
174,0,174,0,5,453.11613730015233,453.11613730015233,0.024113999912515283,[0.17777777777777778],[0.21944444444444444],[1],[0],[0],[8.380062500014901],['target'],01,001,2022-09-29_17h00.18.301,Tutorial_3,2022.2.4,60.31494047587652,
175,0,175,0,10,461.5385718999896,461.5385718999896,0.036683700047433376,[-0.3351851851851852],[-0.29444444444444445],[1],[0],[0],[2.116062399931252],['target'],01,001,2022-09-29_17h00.18.301,Tutorial_3,2022.2.4,60.31494047587652,
176,0,176,0,10,463.6996454000473,463.6996454000473,0.03286799998022616,[-0.25925925925925924],[-0.3453703703703704],[1],[0],[0],[2.105700299842283],['target'],01,001,2022-09-29_17h00.18.301,Tutorial_3,2022.2.4,60.31494047587652,
177,0,177,0,5,465.82853580010124,465.82853580010124,0.021362199913710356,[-0.375],[0.42685185185185187],[1],[0],[0],[2.5141565001104027],['target'],01,001,2022-09-29_17h00.18.301,Tutorial_3,2022.2.4,60.31494047587652,
178,0,178,0,10,468.381846500095,468.381846500095,0.030799200059846044,[-0.27870370370370373],[-0.29907407407407405],[1],[0],[0],[2.9543991999235004],['target'],01,001,2022-09-29_17h00.18.301,Tutorial_3,2022.2.4,60.31494047587652,
179,0,179,0,10,471.38409280008636,471.38409280008636,0.035886399913579226,[0.011111111111111112],[0.27314814814814814],[1],[0],[0],[2.2346608999650925],['target'],01,001,2022-09-29_17h00.18.301,Tutorial_3,2022.2.4,60.31494047587652,
180,0,180,0,5,473.6410237001255,473.6410237001255,0.02227870002388954,[-0.040740740740740744],[0.20555555555555555],[1],[0],[0],[1.2177810999564826],['target'],01,001,2022-09-29_17h00.18.301,Tutorial_3,2022.2.4,60.31494047587652,
181,0,181,0,10,474.9057049001567,474.9057049001567,0.03595969988964498,[0.0787037037037037],[-0.2351851851851852],[1],[0],[0],[3.1152326001320034],['target'],01,001,2022-09-29_17h00.18.301,Tutorial_3,2022.2.4,60.31494047587652,
182,0,182,0,5,478.04957749997266,478.04957749997266,0.02354099997319281,[0.3990740740740741],[-0.42685185185185187],[1],[0],[0],[2.71202680002898],['target'],01,001,2022-09-29_17h00.18.301,Tutorial_3,2022.2.4,60.31494047587652,
183,0,183,0,5,480.7913024001755,480.7913024001755,0.02453529997728765,[-0.3101851851851852],[0.22962962962962963],[1],[0],[0],[1.9636735001113266],['target'],01,001,2022-09-29_17h00.18.301,Tutorial_3,2022.2.4,60.31494047587652,
184,0,184,0,5,482.78462910000235,482.78462910000235,0.02345059998333454,[0.17314814814814813],[-0.1259259259259259],[1],[0],[0],[1.8479009000584483],['target'],01,001,2022-09-29_17h00.18.301,Tutorial_3,2022.2.4,60.31494047587652,
185,0,185,0,10,484.6879147000145,484.6879147000145,0.044715499971061945,[-0.22314814814814815],[0.12685185185185185],[1],[0],[0],[1.8760961999651045],['target'],01,001,2022-09-29_17h00.18.301,Tutorial_3,2022.2.4,60.31494047587652,
186,0,186,0,10,486.5885497001,486.5885497001,0.023607900133356452,[0.49907407407407406],[0.43796296296296294],[1],[0],[0],[2.316751299891621],['target'],01,001,2022-09-29_17h00.18.301,Tutorial_3,2022.2.4,60.31494047587652,
187,0,187,0,10,488.9505572000053,488.9505572000053,0.03335150005295873,[-0.26666666666666666],[-0.23055555555555557],[1],[0],[0],[2.3687118999660015],['target'],01,001,2022-09-29_17h00.18.301,Tutorial_3,2022.2.4,60.31494047587652,
188,0,188,0,10,491.35128820012324,491.35128820012324,0.028776500141248107,[0.1935185185185185],[0.17222222222222222],[1],[0],[0],[1.9775837999768555],['target'],01,001,2022-09-29_17h00.18.301,Tutorial_3,2022.2.4,60.31494047587652,
189,0,189,0,5,493.35350720002316,493.35350720002316,0.018437700113281608,[-0.40370370370370373],[-0.053703703703703705],[1],[0],[0],[1.7331249001435935],['target'],01,001,2022-09-29_17h00.18.301,Tutorial_3,2022.2.4,60.31494047587652,
190,0,190,0,5,495.1207667000126,495.1207667000126,0.02780359983444214,[-0.2638888888888889],[-0.2638888888888889],[1],[0],[0],[1.8604546999558806],['target'],01,001,2022-09-29_17h00.18.301,Tutorial_3,2022.2.4,60.31494047587652,
191,0,191,0,5,497.0152313001454,497.0152313001454,0.027099400060251355,[-0.3037037037037037],[0.06851851851851852],[1],[0],[0],[1.5125470999628305],['target'],01,001,2022-09-29_17h00.18.301,Tutorial_3,2022.2.4,60.31494047587652,
192,0,192,0,5,498.5526968999766,498.5526968999766,0.01761340000666678,[-0.4935185185185185],[0.4444444444444444],[1],[0],[0],[3.1679484001360834],['target'],01,001,2022-09-29_17h00.18.301,Tutorial_3,2022.2.4,60.31494047587652,
193,0,193,0,5,501.7563718999736,501.7563718999736,0.02333560003899038,[-0.29444444444444445],[0.4703703703703704],[1],[0],[0],[4.207869800040498],['target'],01,001,2022-09-29_17h00.18.301,Tutorial_3,2022.2.4,60.31494047587652,
194,0,194,0,10,506.00877199997194,506.00877199997194,0.0405691999476403,[-0.20092592592592592],[0.14537037037037037],[1],[0],[0],[3.5263501000590622],['target'],01,001,2022-09-29_17h00.18.301,Tutorial_3,2022.2.4,60.31494047587652,
195,0,195,0,5,509.5586976001505,509.5586976001505,0.022252999944612384,[-0.1675925925925926],[-0.3277777777777778],[1],[0],[0],[1.7327023998368531],['target'],01,001,2022-09-29_17h00.18.301,Tutorial_3,2022.2.4,60.31494047587652,
196,0,196,0,10,511.3363985000178,511.3363985000178,0.036349899834021926,[0.30462962962962964],[-0.30648148148148147],[1],[0],[0],[2.483817799948156],['target'],01,001,2022-09-29_17h00.18.301,Tutorial_3,2022.2.4,60.31494047587652,
197,0,197,0,5,513.8541160000023,513.8541160000023,0.024112400133162737,[0.17962962962962964],[0.22407407407407406],[1],[0],[0],[2.1255060001276433],['target'],01,001,2022-09-29_17h00.18.301,Tutorial_3,2022.2.4,60.31494047587652,
198,0,198,0,5,516.0097448001616,516.0097448001616,0.02336769993416965,[-0.08425925925925926],[0.23333333333333334],[1],[0],[0],[1.7982790998648852],['target'],01,001,2022-09-29_17h00.18.301,Tutorial_3,2022.2.4,60.31494047587652,
199,0,199,0,10,517.854768600082,517.854768600082,0.034797800006344914,[-0.2111111111111111],[0.35185185185185186],[1],[0],[0],[1.471089000115171],['target'],01,001,2022-09-29_17h00.18.301,Tutorial_3,2022.2.4,60.31494047587652,
