trials.thisRepN,trials.thisTrialN,trials.thisN,trials.thisIndex,num_distr,fixation.started,target.started,mouse.started,mouse.x,mouse.y,mouse.leftButton,mouse.midButton,mouse.rightButton,mouse.time,mouse.clicked_name,participant,session,date,expName,psychopyVersion,frameRate
0,0,0,0,10,66.1888544,66.1888544,0.0304505,[0.08518518518518518],[-0.25555555555555554],[1],[0],[0],[3.544868699973449],['target'],2,1,2022-09-29_18h12.04.146,Tutorial_3,2022.2.4,60.20563837
1,0,1,0,5,69.7528098,69.7528098,0.0208954,[0.46574074074074073],[-0.07407407407407407],[1],[0],[0],[1.4329588001128286],['target'],2,1,2022-09-29_18h12.04.146,Tutorial_3,2022.2.4,60.20563837
2,0,2,0,5,71.2029617,71.2029617,0.0144162,[-0.22870370370370371],[0.3675925925925926],[1],[0],[0],[2.059659000020474],['target'],2,1,2022-09-29_18h12.04.146,Tutorial_3,2022.2.4,60.20563837
3,0,3,0,5,73.2961283,73.2961283,0.0256184,[-0.06944444444444445],[-0.2833333333333333],[1],[0],[0],[1.596853000111878],['target'],2,1,2022-09-29_18h12.04.146,Tutorial_3,2022.2.4,60.20563837
4,0,4,0,10,74.9351016,74.9351016,0.0325025,[-0.06944444444444445],[-0.2833333333333333],[1],[0],[0],[0.771946300053969],[],2,1,2022-09-29_18h12.04.146,Tutorial_3,2022.2.4,60.20563837
5,0,5,0,10,75.7517587,75.7517587,0.0333554,[-0.06944444444444445],[-0.2833333333333333],[1],[0],[0],[0.6091619001235813],[],2,1,2022-09-29_18h12.04.146,Tutorial_3,2022.2.4,60.20563837
6,0,6,0,5,76.3883722,76.3883722,0.024008,[0.14351851851851852],[-0.19907407407407407],[1],[0],[0],[1.5810573000926524],['target'],2,1,2022-09-29_18h12.04.146,Tutorial_3,2022.2.4,60.20563837
7,0,7,0,10,78.0196314,78.0196314,0.0409859,[-0.3972222222222222],[0.3638888888888889],[1],[0],[0],[1.7805395999457687],['target'],2,1,2022-09-29_18h12.04.146,Tutorial_3,2022.2.4,60.20563837
8,0,8,0,5,79.8242803,79.8242803,0.0216252,[0.14722222222222223],[-0.20555555555555555],[1],[0],[0],[1.6838342000264674],['target'],2,1,2022-09-29_18h12.04.146,Tutorial_3,2022.2.4,60.20563837
9,0,9,0,5,81.5362218,81.5362218,0.0218016,[-0.4203703703703704],[0.32222222222222224],[1],[0],[0],[2.9136750001925975],['target'],2,1,2022-09-29_18h12.04.146,Tutorial_3,2022.2.4,60.20563837
10,0,10,0,10,84.5040637,84.5040637,0.0466023,[-0.38981481481481484],[-0.11574074074074074],[1],[0],[0],[1.8247944999020547],['target'],2,1,2022-09-29_18h12.04.146,Tutorial_3,2022.2.4,60.20563837
11,0,11,0,10,86.3753498,86.3753498,0.0360071,[0.40370370370370373],[0.34814814814814815],[1],[0],[0],[2.6664823999162763],['target'],2,1,2022-09-29_18h12.04.146,Tutorial_3,2022.2.4,60.20563837
12,0,12,0,10,89.0818491,89.0818491,0.0321222,[-0.1037037037037037],[0.37037037037037035],[1],[0],[0],[1.542751400033012],['target'],2,1,2022-09-29_18h12.04.146,Tutorial_3,2022.2.4,60.20563837
13,0,13,0,5,90.6424185,90.6424185,0.0180255,[-0.41574074074074074],[-0.40925925925925927],[1],[0],[0],[2.032941399840638],['target'],2,1,2022-09-29_18h12.04.146,Tutorial_3,2022.2.4,60.20563837
14,0,14,0,10,92.7188878,92.7188878,0.0340025,[0.11944444444444445],[0.2],[1],[0],[0],[1.8203560998663306],['target'],2,1,2022-09-29_18h12.04.146,Tutorial_3,2022.2.4,60.20563837
15,0,15,0,10,94.5806926,94.5806926,0.03041,[0.39537037037037037],[0.2898148148148148],[1],[0],[0],[1.5923007999081165],['target'],2,1,2022-09-29_18h12.04.146,Tutorial_3,2022.2.4,60.20563837
16,0,16,0,10,96.2039313,96.2039313,0.0283716,[-0.05555555555555555],[-0.46944444444444444],[1],[0],[0],[2.5584561000578105],['target'],2,1,2022-09-29_18h12.04.146,Tutorial_3,2022.2.4,60.20563837
17,0,17,0,5,98.7952358,98.7952358,0.0284278,[-0.21481481481481482],[0.15648148148148147],[1],[0],[0],[1.3784737000241876],['target'],2,1,2022-09-29_18h12.04.146,Tutorial_3,2022.2.4,60.20563837
18,0,18,0,10,100.2189924,100.2189924,0.0363202,[0.3277777777777778],[0.16296296296296298],[1],[0],[0],[1.8345783001277596],['target'],2,1,2022-09-29_18h12.04.146,Tutorial_3,2022.2.4,60.20563837
19,0,19,0,10,102.1020892,102.1020892,0.0356061,[-0.31574074074074077],[-0.462037037037037],[1],[0],[0],[1.9700527000240982],['target'],2,1,2022-09-29_18h12.04.146,Tutorial_3,2022.2.4,60.20563837
20,0,20,0,5,104.0965196,104.0965196,0.0236125,[0.004629629629629629],[-0.15092592592592594],[1],[0],[0],[3.223237100057304],['target'],2,1,2022-09-29_18h12.04.146,Tutorial_3,2022.2.4,60.20563837
21,0,21,0,10,107.3679486,107.3679486,0.0363069,[-0.29259259259259257],[0.05925925925925926],[1],[0],[0],[1.4532896999735385],['target'],2,1,2022-09-29_18h12.04.146,Tutorial_3,2022.2.4,60.20563837
22,0,22,0,5,108.8430942,108.8430942,0.019084,[0.1175925925925926],[0.2796296296296296],[1],[0],[0],[1.3874118998646736],['target'],2,1,2022-09-29_18h12.04.146,Tutorial_3,2022.2.4,60.20563837
23,0,23,0,5,110.2645954,110.2645954,0.0276333,[0.2462962962962963],[0.4083333333333333],[1],[0],[0],[1.3113816000986844],['target'],2,1,2022-09-29_18h12.04.146,Tutorial_3,2022.2.4,60.20563837
24,0,24,0,5,111.6100133,111.6100133,0.0246514,[-0.16203703703703703],[0.48703703703703705],[1],[0],[0],[1.5965837000403553],['target'],2,1,2022-09-29_18h12.04.146,Tutorial_3,2022.2.4,60.20563837
25,0,25,0,10,113.2265447,113.2265447,0.0185848,[-0.3453703703703704],[0.35],[1],[0],[0],[1.873684999998659],['target'],2,1,2022-09-29_18h12.04.146,Tutorial_3,2022.2.4,60.20563837
26,0,26,0,5,115.1315364,115.1315364,0.0257688,[-0.4583333333333333],[-0.362962962962963],[1],[0],[0],[1.9455258999951184],['target'],2,1,2022-09-29_18h12.04.146,Tutorial_3,2022.2.4,60.20563837
27,0,27,0,5,117.1119321,117.1119321,0.0258728,[0.37962962962962965],[-0.062037037037037036],[1],[0],[0],[2.7924085000995547],['target'],2,1,2022-09-29_18h12.04.146,Tutorial_3,2022.2.4,60.20563837
28,0,28,0,5,119.9363361,119.9363361,0.0255364,[-0.36944444444444446],[0.021296296296296296],[1],[0],[0],[1.5127085000276566],['target'],2,1,2022-09-29_18h12.04.146,Tutorial_3,2022.2.4,60.20563837
29,0,29,0,5,121.46252,121.46252,0.0120919,[-0.22314814814814815],[0.1638888888888889],[1],[0],[0],[1.4639663000125438],['target'],2,1,2022-09-29_18h12.04.146,Tutorial_3,2022.2.4,60.20563837
30,0,30,0,10,122.9560982,122.9560982,0.0240528,[-0.4759259259259259],[0.028703703703703703],[1],[0],[0],[1.2031497999560088],['target'],2,1,2022-09-29_18h12.04.146,Tutorial_3,2022.2.4,60.20563837
31,0,31,0,10,124.2083565,124.2083565,0.0389907,[-0.3453703703703704],[-0.3055555555555556],[1],[0],[0],[1.3844376001507044],[],2,1,2022-09-29_18h12.04.146,Tutorial_3,2022.2.4,60.20563837
32,0,32,0,10,125.6175355,125.6175355,0.0243587,[0.008333333333333333],[-0.10648148148148148],[1],[0],[0],[2.133022499969229],['target'],2,1,2022-09-29_18h12.04.146,Tutorial_3,2022.2.4,60.20563837
33,0,33,0,10,127.7790801,127.7790801,0.0258913,[0.1648148148148148],[-0.37962962962962965],[1],[0],[0],[2.281375000020489],['target'],2,1,2022-09-29_18h12.04.146,Tutorial_3,2022.2.4,60.20563837
34,0,34,0,5,130.0925239,130.0925239,0.0234824,[-0.33425925925925926],[-0.049074074074074076],[1],[0],[0],[2.064839599886909],['target'],2,1,2022-09-29_18h12.04.146,Tutorial_3,2022.2.4,60.20563837
35,0,35,0,10,132.2114382,132.2114382,0.0457698,[0.001851851851851852],[-0.2962962962962963],[1],[0],[0],[1.9254058999940753],['target'],2,1,2022-09-29_18h12.04.146,Tutorial_3,2022.2.4,60.20563837
36,0,36,0,5,134.1564699,134.1564699,0.0180783,[0.08888888888888889],[-0.026851851851851852],[1],[0],[0],[1.171497100032866],[],2,1,2022-09-29_18h12.04.146,Tutorial_3,2022.2.4,60.20563837
37,0,37,0,10,135.3724405,135.3724405,0.0363853,[0.3416666666666667],[-0.29907407407407405],[1],[0],[0],[2.666038300143555],['target'],2,1,2022-09-29_18h12.04.146,Tutorial_3,2022.2.4,60.20563837
38,0,38,0,5,138.0686673,138.0686673,0.0236724,[0.45925925925925926],[0.2],[1],[0],[0],[2.146434099879116],['target'],2,1,2022-09-29_18h12.04.146,Tutorial_3,2022.2.4,60.20563837
39,0,39,0,5,140.2480728,140.2480728,0.0272132,[0.27870370370370373],[-0.05277777777777778],[1],[0],[0],[2.3269583999644965],['target'],2,1,2022-09-29_18h12.04.146,Tutorial_3,2022.2.4,60.20563837
40,0,40,0,10,142.6343372,142.6343372,0.0433773,[-0.06574074074074074],[0.08518518518518518],[1],[0],[0],[1.529051700141281],['target'],2,1,2022-09-29_18h12.04.146,Tutorial_3,2022.2.4,60.20563837
41,0,41,0,10,144.2193736,144.2193736,0.0490982,[-0.09259259259259259],[-0.19537037037037036],[1],[0],[0],[2.337415099842474],['target'],2,1,2022-09-29_18h12.04.146,Tutorial_3,2022.2.4,60.20563837
42,0,42,0,10,146.5930497,146.5930497,0.0342903,[0.1648148148148148],[-0.2064814814814815],[1],[0],[0],[1.690118100028485],['target'],2,1,2022-09-29_18h12.04.146,Tutorial_3,2022.2.4,60.20563837
43,0,43,0,5,148.3111841,148.3111841,0.0239729,[-0.24074074074074073],[0.4759259259259259],[1],[0],[0],[1.8108091000467539],['target'],2,1,2022-09-29_18h12.04.146,Tutorial_3,2022.2.4,60.20563837
44,0,44,0,10,150.1515155,150.1515155,0.0235327,[0.2490740740740741],[-0.36018518518518516],[1],[0],[0],[2.464367799926549],['target'],2,1,2022-09-29_18h12.04.146,Tutorial_3,2022.2.4,60.20563837
45,0,45,0,10,152.6602316,152.6602316,0.0322936,[0.2212962962962963],[-0.06111111111111111],[1],[0],[0],[1.6551739999558777],['target'],2,1,2022-09-29_18h12.04.146,Tutorial_3,2022.2.4,60.20563837
46,0,46,0,5,154.3382533,154.3382533,0.0214139,[0.37962962962962965],[0.44907407407407407],[1],[0],[0],[2.132842499995604],['target'],2,1,2022-09-29_18h12.04.146,Tutorial_3,2022.2.4,60.20563837
47,0,47,0,5,156.5059852,156.5059852,0.0245249,[0.2851851851851852],[-0.25092592592592594],[1],[0],[0],[2.013870900031179],['target'],2,1,2022-09-29_18h12.04.146,Tutorial_3,2022.2.4,60.20563837
48,0,48,0,5,158.5499458,158.5499458,0.027484,[0.2537037037037037],[0.09814814814814815],[1],[0],[0],[1.6275282998103648],['target'],2,1,2022-09-29_18h12.04.146,Tutorial_3,2022.2.4,60.20563837
49,0,49,0,5,160.2115856,160.2115856,0.0276024,[0.019444444444444445],[0.2037037037037037],[1],[0],[0],[2.3264897000044584],['target'],2,1,2022-09-29_18h12.04.146,Tutorial_3,2022.2.4,60.20563837
50,0,50,0,10,162.5880794,162.5880794,0.0433825,[0.21944444444444444],[0.09074074074074075],[1],[0],[0],[1.7619090001098812],['target'],2,1,2022-09-29_18h12.04.146,Tutorial_3,2022.2.4,60.20563837
51,0,51,0,10,164.3982708,164.3982708,0.035179,[-0.30185185185185187],[-0.07037037037037037],[1],[0],[0],[3.0326372999697924],['target'],2,1,2022-09-29_18h12.04.146,Tutorial_3,2022.2.4,60.20563837
52,0,52,0,10,167.4698257,167.4698257,0.0327712,[0.19074074074074074],[0.23796296296296296],[1],[0],[0],[1.8546522001270205],['target'],2,1,2022-09-29_18h12.04.146,Tutorial_3,2022.2.4,60.20563837
53,0,53,0,5,169.3437612,169.3437612,0.0197455,[0.4777777777777778],[0.14537037037037037],[1],[0],[0],[1.6708577999379486],['target'],2,1,2022-09-29_18h12.04.146,Tutorial_3,2022.2.4,60.20563837
54,0,54,0,10,171.0530889,171.0530889,0.0338604,[0.12685185185185185],[0.19722222222222222],[1],[0],[0],[2.221483899978921],['target'],2,1,2022-09-29_18h12.04.146,Tutorial_3,2022.2.4,60.20563837
55,0,55,0,5,173.2991768,173.2991768,0.0206743,[0.041666666666666664],[-0.23425925925925925],[1],[0],[0],[1.9036042999941856],['target'],2,1,2022-09-29_18h12.04.146,Tutorial_3,2022.2.4,60.20563837
56,0,56,0,10,175.2340279,175.2340279,0.0268852,[0.2824074074074074],[-0.07037037037037037],[1],[0],[0],[1.5980237999465317],['target'],2,1,2022-09-29_18h12.04.146,Tutorial_3,2022.2.4,60.20563837
57,0,57,0,10,176.867955,176.867955,0.029931,[-0.11481481481481481],[-0.11666666666666667],[1],[0],[0],[1.4600875000469387],['target'],2,1,2022-09-29_18h12.04.146,Tutorial_3,2022.2.4,60.20563837
58,0,58,0,5,178.3551502,178.3551502,0.0195615,[-0.1537037037037037],[-0.2953703703703704],[1],[0],[0],[1.8670198998879641],['target'],2,1,2022-09-29_18h12.04.146,Tutorial_3,2022.2.4,60.20563837
59,0,59,0,10,180.2467253,180.2467253,0.0188747,[0.24259259259259258],[-0.3111111111111111],[1],[0],[0],[2.8035128999035805],['target'],2,1,2022-09-29_18h12.04.146,Tutorial_3,2022.2.4,60.20563837
60,0,60,0,5,183.0584759,183.0584759,0.0096156,[-0.3055555555555556],[0.06296296296296296],[1],[0],[0],[2.1159578999504447],['target'],2,1,2022-09-29_18h12.04.146,Tutorial_3,2022.2.4,60.20563837
61,0,61,0,10,185.2128624,185.2128624,0.0287199,[-0.26944444444444443],[0.3814814814814815],[1],[0],[0],[1.9575823999475688],['target'],2,1,2022-09-29_18h12.04.146,Tutorial_3,2022.2.4,60.20563837
62,0,62,0,10,187.2016534,187.2016534,0.0269379,[0.20925925925925926],[0.17592592592592593],[1],[0],[0],[2.445124800084159],['target'],2,1,2022-09-29_18h12.04.146,Tutorial_3,2022.2.4,60.20563837
63,0,63,0,5,189.6706656,189.6706656,0.0182615,[0.005555555555555556],[0.2212962962962963],[1],[0],[0],[1.4384483001194894],['target'],2,1,2022-09-29_18h12.04.146,Tutorial_3,2022.2.4,60.20563837
64,0,64,0,10,191.153396,191.153396,0.0373929,[0.3592592592592593],[0.06111111111111111],[1],[0],[0],[3.217299000127241],['target'],2,1,2022-09-29_18h12.04.146,Tutorial_3,2022.2.4,60.20563837
65,0,65,0,10,194.4154136,194.4154136,0.0362155,[-0.3296296296296296],[0.16203703703703703],[1],[0],[0],[1.86859399988316],['target'],2,1,2022-09-29_18h12.04.146,Tutorial_3,2022.2.4,60.20563837
66,0,66,0,5,196.3120845,196.3120845,0.02486,[0.13055555555555556],[-0.4111111111111111],[1],[0],[0],[2.876295099966228],['target'],2,1,2022-09-29_18h12.04.146,Tutorial_3,2022.2.4,60.20563837
67,0,67,0,10,199.2296952,199.2296952,0.0365749,[-0.21203703703703702],[-0.028703703703703703],[1],[0],[0],[3.315348400035873],['target'],2,1,2022-09-29_18h12.04.146,Tutorial_3,2022.2.4,60.20563837
68,0,68,0,10,202.5994025,202.5994025,0.0418476,[-0.36203703703703705],[0.13796296296296295],[1],[0],[0],[3.0438436998520046],['target'],2,1,2022-09-29_18h12.04.146,Tutorial_3,2022.2.4,60.20563837
69,0,69,0,5,205.6677352,205.6677352,0.023404,[0.07222222222222222],[-0.38333333333333336],[1],[0],[0],[2.130036700051278],['target'],2,1,2022-09-29_18h12.04.146,Tutorial_3,2022.2.4,60.20563837
70,0,70,0,10,207.8455438,207.8455438,0.0402903,[0.24074074074074073],[-0.023148148148148147],[1],[0],[0],[1.6989149001892656],['target'],2,1,2022-09-29_18h12.04.146,Tutorial_3,2022.2.4,60.20563837
71,0,71,0,10,209.5883208,209.5883208,0.0329714,[-0.1537037037037037],[-0.4740740740740741],[1],[0],[0],[2.9014000999741256],['target'],2,1,2022-09-29_18h12.04.146,Tutorial_3,2022.2.4,60.20563837
72,0,72,0,5,212.5179681,212.5179681,0.0231966,[0.1259259259259259],[-0.07592592592592592],[1],[0],[0],[2.4966597999446094],['target'],2,1,2022-09-29_18h12.04.146,Tutorial_3,2022.2.4,60.20563837
73,0,73,0,10,215.0582313,215.0582313,0.0373633,[-0.25555555555555554],[0.325],[1],[0],[0],[2.300513500114903],['target'],2,1,2022-09-29_18h12.04.146,Tutorial_3,2022.2.4,60.20563837
74,0,74,0,10,217.4016887,217.4016887,0.0345319,[0.46944444444444444],[0.028703703703703703],[1],[0],[0],[2.035710500087589],['target'],2,1,2022-09-29_18h12.04.146,Tutorial_3,2022.2.4,60.20563837
75,0,75,0,5,219.4638898,219.4638898,0.0249749,[-0.45555555555555555],[0.49907407407407406],[1],[0],[0],[2.1958205001428723],['target'],2,1,2022-09-29_18h12.04.146,Tutorial_3,2022.2.4,60.20563837
76,0,76,0,10,221.7133371,221.7133371,0.0414314,[0.3074074074074074],[0.14629629629629629],[1],[0],[0],[2.944435200188309],['target'],2,1,2022-09-29_18h12.04.146,Tutorial_3,2022.2.4,60.20563837
77,0,77,0,10,224.7002764,224.7002764,0.0363015,[0.33240740740740743],[0.16574074074074074],[1],[0],[0],[1.6363377999514341],['target'],2,1,2022-09-29_18h12.04.146,Tutorial_3,2022.2.4,60.20563837
78,0,78,0,10,226.3776437,226.3776437,0.0362145,[0.27685185185185185],[-0.2462962962962963],[1],[0],[0],[2.031680299900472],['target'],2,1,2022-09-29_18h12.04.146,Tutorial_3,2022.2.4,60.20563837
79,0,79,0,10,228.4392766,228.4392766,0.0211759,[0.20833333333333334],[-0.017592592592592594],[1],[0],[0],[1.487348600057885],['target'],2,1,2022-09-29_18h12.04.146,Tutorial_3,2022.2.4,60.20563837
80,0,80,0,5,229.9397209,229.9397209,0.0158485,[-0.021296296296296296],[-0.42407407407407405],[1],[0],[0],[2.3577359998598695],['target'],2,1,2022-09-29_18h12.04.146,Tutorial_3,2022.2.4,60.20563837
81,0,81,0,5,232.3271588,232.3271588,0.0224404,[-0.43148148148148147],[-0.1537037037037037],[1],[0],[0],[1.798705300083384],['target'],2,1,2022-09-29_18h12.04.146,Tutorial_3,2022.2.4,60.20563837
82,0,82,0,10,234.1742211,234.1742211,0.0395459,[0.41759259259259257],[0.20092592592592592],[1],[0],[0],[1.982086299918592],['target'],2,1,2022-09-29_18h12.04.146,Tutorial_3,2022.2.4,60.20563837
83,0,83,0,5,236.1784229,236.1784229,0.0176546,[0.34444444444444444],[-0.38425925925925924],[1],[0],[0],[2.2529453998431563],['target'],2,1,2022-09-29_18h12.04.146,Tutorial_3,2022.2.4,60.20563837
84,0,84,0,5,238.4628049,238.4628049,0.0260481,[0.3194444444444444],[0.001851851851851852],[1],[0],[0],[1.8458648999221623],['target'],2,1,2022-09-29_18h12.04.146,Tutorial_3,2022.2.4,60.20563837
85,0,85,0,5,240.3302152,240.3302152,0.0152842,[-0.25555555555555554],[0.3990740740740741],[1],[0],[0],[2.25767119997181],['target'],2,1,2022-09-29_18h12.04.146,Tutorial_3,2022.2.4,60.20563837
86,0,86,0,5,242.6166386,242.6166386,0.0237294,[-0.11203703703703703],[-0.3148148148148148],[1],[0],[0],[1.747813900001347],['target'],2,1,2022-09-29_18h12.04.146,Tutorial_3,2022.2.4,60.20563837
87,0,87,0,10,244.4156746,244.4156746,0.0427933,[-0.12037037037037036],[-0.24074074074074073],[1],[0],[0],[3.391346000134945],['target'],2,1,2022-09-29_18h12.04.146,Tutorial_3,2022.2.4,60.20563837
88,0,88,0,10,247.8437099,247.8437099,0.0318736,[0.4666666666666667],[-0.17962962962962964],[1],[0],[0],[2.8869000000413507],['target'],2,1,2022-09-29_18h12.04.146,Tutorial_3,2022.2.4,60.20563837
89,0,89,0,10,250.7630085,250.7630085,0.0250739,[-0.4962962962962963],[-0.12222222222222222],[1],[0],[0],[3.492569599999115],['target'],2,1,2022-09-29_18h12.04.146,Tutorial_3,2022.2.4,60.20563837
90,0,90,0,5,254.2890979,254.2890979,0.0269989,[-0.13703703703703704],[0.1814814814814815],[1],[0],[0],[2.194249999942258],['target'],2,1,2022-09-29_18h12.04.146,Tutorial_3,2022.2.4,60.20563837
91,0,91,0,5,256.5127438,256.5127438,0.0247019,[0.32222222222222224],[0.26481481481481484],[1],[0],[0],[2.196352700004354],['target'],2,1,2022-09-29_18h12.04.146,Tutorial_3,2022.2.4,60.20563837
92,0,92,0,5,258.7325709,258.7325709,0.0160715,[-0.25925925925925924],[-0.21944444444444444],[1],[0],[0],[1.7579385000281036],['target'],2,1,2022-09-29_18h12.04.146,Tutorial_3,2022.2.4,60.20563837
93,0,93,0,5,260.5208823,260.5208823,0.0252081,[0.23703703703703705],[0.12314814814814815],[1],[0],[0],[3.1091541999485344],['target'],2,1,2022-09-29_18h12.04.146,Tutorial_3,2022.2.4,60.20563837
94,0,94,0,5,263.6582767,263.6582767,0.021671,[-0.08981481481481482],[-0.09074074074074075],[1],[0],[0],[2.4494643001817167],['target'],2,1,2022-09-29_18h12.04.146,Tutorial_3,2022.2.4,60.20563837
95,0,95,0,5,266.1345533,266.1345533,0.0219151,[0.15462962962962962],[0.0962962962962963],[1],[0],[0],[2.116829000180587],['target'],2,1,2022-09-29_18h12.04.146,Tutorial_3,2022.2.4,60.20563837
96,0,96,0,5,268.2684192,268.2684192,0.0142425,[0.1935185185185185],[-0.1712962962962963],[1],[0],[0],[2.0916860001161695],['target'],2,1,2022-09-29_18h12.04.146,Tutorial_3,2022.2.4,60.20563837
97,0,97,0,5,270.3848257,270.3848257,0.0194383,[0.1935185185185185],[-0.1712962962962963],[1],[0],[0],[0.6735805000644177],[],2,1,2022-09-29_18h12.04.146,Tutorial_3,2022.2.4,60.20563837
98,0,98,0,5,271.0746359,271.0746359,0.0137568,[0.1935185185185185],[-0.1712962962962963],[1],[0],[0],[0.4148562999907881],[],2,1,2022-09-29_18h12.04.146,Tutorial_3,2022.2.4,60.20563837
99,0,99,0,10,271.5324883,271.5324883,0.0330792,[0.1935185185185185],[-0.1712962962962963],[1],[0],[0],[0.26032859995029867],[],2,1,2022-09-29_18h12.04.146,Tutorial_3,2022.2.4,60.20563837
100,0,100,0,10,271.8311031,271.8311031,0.0340472,[0.48703703703703705],[0.33425925925925926],[1],[0],[0],[3.500290500000119],['target'],2,1,2022-09-29_18h12.04.146,Tutorial_3,2022.2.4,60.20563837
101,0,101,0,10,275.3787979,275.3787979,0.0388761,[0.19537037037037036],[-0.008333333333333333],[1],[0],[0],[1.6676230998709798],['target'],2,1,2022-09-29_18h12.04.146,Tutorial_3,2022.2.4,60.20563837
102,0,102,0,5,277.0782139,277.0782139,0.0244745,[-0.21203703703703702],[-0.12222222222222222],[1],[0],[0],[1.8105518999509513],['target'],2,1,2022-09-29_18h12.04.146,Tutorial_3,2022.2.4,60.20563837
103,0,103,0,5,278.9141403,278.9141403,0.0186109,[0.3472222222222222],[0.05925925925925926],[1],[0],[0],[1.9195808998774737],['target'],2,1,2022-09-29_18h12.04.146,Tutorial_3,2022.2.4,60.20563837
104,0,104,0,5,280.8689408,280.8689408,0.0272094,[0.1814814814814815],[-0.4287037037037037],[1],[0],[0],[2.5917811000254005],['target'],2,1,2022-09-29_18h12.04.146,Tutorial_3,2022.2.4,60.20563837
105,0,105,0,5,283.4902755,283.4902755,0.0247087,[0.13518518518518519],[-0.14537037037037037],[1],[0],[0],[1.630804899847135],['target'],2,1,2022-09-29_18h12.04.146,Tutorial_3,2022.2.4,60.20563837
106,0,106,0,5,285.1487055,285.1487055,0.0212357,[-0.31296296296296294],[-0.34629629629629627],[1],[0],[0],[3.863086000084877],['target'],2,1,2022-09-29_18h12.04.146,Tutorial_3,2022.2.4,60.20563837
107,0,107,0,10,289.0352732,289.0352732,0.0216818,[-0.44074074074074077],[0.1787037037037037],[1],[0],[0],[3.2666527999099344],['target'],2,1,2022-09-29_18h12.04.146,Tutorial_3,2022.2.4,60.20563837
108,0,108,0,5,292.3353503,292.3353503,0.0266614,[-0.2972222222222222],[0.040740740740740744],[1],[0],[0],[3.2749274999368936],['target'],2,1,2022-09-29_18h12.04.146,Tutorial_3,2022.2.4,60.20563837
109,0,109,0,5,295.628925,295.628925,0.0162494,[-0.23796296296296296],[0.062037037037037036],[1],[0],[0],[1.6888564000837505],['target'],2,1,2022-09-29_18h12.04.146,Tutorial_3,2022.2.4,60.20563837
110,0,110,0,5,297.3586702,297.3586702,0.0323893,[-0.18703703703703703],[0.07777777777777778],[1],[0],[0],[1.5908838999457657],['target'],2,1,2022-09-29_18h12.04.146,Tutorial_3,2022.2.4,60.20563837
111,0,111,0,5,298.9890377,298.9890377,0.0298521,[-0.10092592592592593],[-0.33240740740740743],[1],[0],[0],[1.5085201000329107],['target'],2,1,2022-09-29_18h12.04.146,Tutorial_3,2022.2.4,60.20563837
112,0,112,0,10,300.5283839,300.5283839,0.0233601,[-0.44814814814814813],[-0.4537037037037037],[1],[0],[0],[2.182192899985239],['target'],2,1,2022-09-29_18h12.04.146,Tutorial_3,2022.2.4,60.20563837
113,0,113,0,5,302.7209791,302.7209791,0.0124819,[0.48055555555555557],[-0.3861111111111111],[1],[0],[0],[2.7253228998742998],['target'],2,1,2022-09-29_18h12.04.146,Tutorial_3,2022.2.4,60.20563837
114,0,114,0,10,305.4952317,305.4952317,0.0316377,[-0.025],[-0.08796296296296297],[1],[0],[0],[2.4211832999717444],['target'],2,1,2022-09-29_18h12.04.146,Tutorial_3,2022.2.4,60.20563837
115,0,115,0,5,307.9333116,307.9333116,0.0178142,[0.44814814814814813],[0.3138888888888889],[1],[0],[0],[2.1677627000026405],['target'],2,1,2022-09-29_18h12.04.146,Tutorial_3,2022.2.4,60.20563837
116,0,116,0,5,310.1383617,310.1383617,0.0276129,[-0.387037037037037],[0.325],[1],[0],[0],[1.7581326998770237],['target'],2,1,2022-09-29_18h12.04.146,Tutorial_3,2022.2.4,60.20563837
117,0,117,0,5,311.9288989,311.9288989,0.0232121,[0.1425925925925926],[0.04722222222222222],[1],[0],[0],[1.5495686000213027],['target'],2,1,2022-09-29_18h12.04.146,Tutorial_3,2022.2.4,60.20563837
118,0,118,0,5,313.5084806,313.5084806,0.0233243,[0.13055555555555556],[0.2861111111111111],[1],[0],[0],[1.5491054998710752],['target'],2,1,2022-09-29_18h12.04.146,Tutorial_3,2022.2.4,60.20563837
119,0,119,0,5,315.0884428,315.0884428,0.0256496,[-0.14629629629629629],[-0.1388888888888889],[1],[0],[0],[1.7794685999397188],['target'],2,1,2022-09-29_18h12.04.146,Tutorial_3,2022.2.4,60.20563837
120,0,120,0,5,316.9020491,316.9020491,0.0264133,[-0.08055555555555556],[0.36203703703703705],[1],[0],[0],[2.393296099966392],['target'],2,1,2022-09-29_18h12.04.146,Tutorial_3,2022.2.4,60.20563837
121,0,121,0,5,319.3278741,319.3278741,0.0249164,[0.07777777777777778],[0.4064814814814815],[1],[0],[0],[1.4970317999832332],['target'],2,1,2022-09-29_18h12.04.146,Tutorial_3,2022.2.4,60.20563837
122,0,122,0,10,320.8688325,320.8688325,0.03371,[0.12222222222222222],[0.4101851851851852],[1],[0],[0],[1.1901573999784887],['target'],2,1,2022-09-29_18h12.04.146,Tutorial_3,2022.2.4,60.20563837
123,0,123,0,5,322.0859889,322.0859889,0.0226586,[0.3685185185185185],[-0.002777777777777778],[1],[0],[0],[3.776168700074777],['target'],2,1,2022-09-29_18h12.04.146,Tutorial_3,2022.2.4,60.20563837
124,0,124,0,10,325.909575,325.909575,0.0358536,[0.07407407407407407],[0.2351851851851852],[1],[0],[0],[1.9536926997825503],['target'],2,1,2022-09-29_18h12.04.146,Tutorial_3,2022.2.4,60.20563837
125,0,125,0,10,327.9117413,327.9117413,0.0401336,[-0.03888888888888889],[-0.31851851851851853],[1],[0],[0],[2.328609799966216],['target'],2,1,2022-09-29_18h12.04.146,Tutorial_3,2022.2.4,60.20563837
126,0,126,0,5,330.2517927,330.2517927,0.0168794,[0.4361111111111111],[-0.3509259259259259],[1],[0],[0],[2.9530164999887347],['target'],2,1,2022-09-29_18h12.04.146,Tutorial_3,2022.2.4,60.20563837
127,0,127,0,10,333.2603008,333.2603008,0.0426102,[-0.425],[0.05555555555555555],[1],[0],[0],[3.291613799985498],['target'],2,1,2022-09-29_18h12.04.146,Tutorial_3,2022.2.4,60.20563837
128,0,128,0,10,336.5923342,336.5923342,0.0323971,[-0.2037037037037037],[0.44166666666666665],[1],[0],[0],[3.069102399982512],['target'],2,1,2022-09-29_18h12.04.146,Tutorial_3,2022.2.4,60.20563837
129,0,129,0,5,339.6849955,339.6849955,0.0222219,[0.3972222222222222],[0.04537037037037037],[1],[0],[0],[1.6165966000407934],['target'],2,1,2022-09-29_18h12.04.146,Tutorial_3,2022.2.4,60.20563837
130,0,130,0,10,341.3642374,341.3642374,0.0447503,[0.2],[0.4564814814814815],[1],[0],[0],[1.4936653999611735],['target'],2,1,2022-09-29_18h12.04.146,Tutorial_3,2022.2.4,60.20563837
131,0,131,0,5,342.875498,342.875498,0.0212847,[-0.2537037037037037],[-0.32407407407407407],[1],[0],[0],[1.867678500013426],['target'],2,1,2022-09-29_18h12.04.146,Tutorial_3,2022.2.4,60.20563837
132,0,132,0,5,344.7742395,344.7742395,0.0240436,[-0.3962962962962963],[0.44814814814814813],[1],[0],[0],[1.9467561000492424],['target'],2,1,2022-09-29_18h12.04.146,Tutorial_3,2022.2.4,60.20563837
133,0,133,0,10,346.7689837,346.7689837,0.0377846,[-0.32222222222222224],[0.3194444444444444],[1],[0],[0],[2.5164336001034826],['target'],2,1,2022-09-29_18h12.04.146,Tutorial_3,2022.2.4,60.20563837
134,0,134,0,10,349.3111298,349.3111298,0.0238081,[-0.3907407407407407],[0.44166666666666665],[1],[0],[0],[15.062701299786568],[],2,1,2022-09-29_18h12.04.146,Tutorial_3,2022.2.4,60.20563837
135,0,135,0,5,364.4036193,364.4036193,0.024012,[-0.06111111111111111],[0.2851851851851852],[1],[0],[0],[2.0629370000679046],['target'],2,1,2022-09-29_18h12.04.146,Tutorial_3,2022.2.4,60.20563837
136,0,136,0,10,366.5307283,366.5307283,0.0478574,[0.40185185185185185],[-0.16203703703703703],[1],[0],[0],[3.851229199906811],['target'],2,1,2022-09-29_18h12.04.146,Tutorial_3,2022.2.4,60.20563837
137,0,137,0,10,370.4162797,370.4162797,0.0336707,[0.3],[0.5],[1],[0],[0],[3.9491924000903964],['target'],2,1,2022-09-29_18h12.04.146,Tutorial_3,2022.2.4,60.20563837
138,0,138,0,10,374.4046129,374.4046129,0.0331344,[0.05092592592592592],[-0.3101851851851852],[1],[0],[0],[4.215358399786055],['target'],2,1,2022-09-29_18h12.04.146,Tutorial_3,2022.2.4,60.20563837
139,0,139,0,10,378.6579836,378.6579836,0.0308982,[-0.2518518518518518],[-0.18333333333333332],[1],[0],[0],[2.7048474999610335],['target'],2,1,2022-09-29_18h12.04.146,Tutorial_3,2022.2.4,60.20563837
140,0,140,0,10,381.4048336,381.4048336,0.0341111,[-0.3425925925925926],[0.4703703703703704],[1],[0],[0],[3.117900300072506],['target'],2,1,2022-09-29_18h12.04.146,Tutorial_3,2022.2.4,60.20563837
141,0,141,0,10,384.5782345,384.5782345,0.0419868,[0.2722222222222222],[-0.3037037037037037],[1],[0],[0],[6.9154855001252145],['target'],2,1,2022-09-29_18h12.04.146,Tutorial_3,2022.2.4,60.20563837
142,0,142,0,10,391.5265588,391.5265588,0.0335647,[-0.40185185185185185],[-0.1787037037037037],[1],[0],[0],[3.051235100021586],['target'],2,1,2022-09-29_18h12.04.146,Tutorial_3,2022.2.4,60.20563837
143,0,143,0,5,394.6007768,394.6007768,0.0216022,[-0.4842592592592593],[0.1],[1],[0],[0],[2.298463499872014],['target'],2,1,2022-09-29_18h12.04.146,Tutorial_3,2022.2.4,60.20563837
144,0,144,0,5,396.9320542,396.9320542,0.0244789,[-0.2796296296296296],[0.19722222222222222],[1],[0],[0],[1.582050000084564],['target'],2,1,2022-09-29_18h12.04.146,Tutorial_3,2022.2.4,60.20563837
145,0,145,0,10,398.5737039,398.5737039,0.0428479,[0.11574074074074074],[-0.41203703703703703],[1],[0],[0],[2.127573800040409],['target'],2,1,2022-09-29_18h12.04.146,Tutorial_3,2022.2.4,60.20563837
146,0,146,0,10,400.7325675,400.7325675,0.0306734,[-0.47685185185185186],[0.49074074074074076],[1],[0],[0],[2.321979299886152],['target'],2,1,2022-09-29_18h12.04.146,Tutorial_3,2022.2.4,60.20563837
147,0,147,0,10,403.0947253,403.0947253,0.0329717,[-0.14814814814814814],[-0.11018518518518519],[1],[0],[0],[3.0687985999975353],['target'],2,1,2022-09-29_18h12.04.146,Tutorial_3,2022.2.4,60.20563837
148,0,148,0,10,406.2046567,406.2046567,0.0364158,[0.40185185185185185],[0.05462962962962963],[1],[0],[0],[2.018536099931225],['target'],2,1,2022-09-29_18h12.04.146,Tutorial_3,2022.2.4,60.20563837
149,0,149,0,5,408.2484495,408.2484495,0.0242661,[0.21944444444444444],[-0.0824074074074074],[1],[0],[0],[1.7143401999492198],['target'],2,1,2022-09-29_18h12.04.146,Tutorial_3,2022.2.4,60.20563837
150,0,150,0,5,409.9982277,409.9982277,0.0252037,[-0.46574074074074073],[-0.2324074074074074],[1],[0],[0],[3.009665099903941],['target'],2,1,2022-09-29_18h12.04.146,Tutorial_3,2022.2.4,60.20563837
151,0,151,0,10,413.0521673,413.0521673,0.0386891,[-0.29259259259259257],[-0.14722222222222223],[1],[0],[0],[4.392483399948105],['target'],2,1,2022-09-29_18h12.04.146,Tutorial_3,2022.2.4,60.20563837
152,0,152,0,5,417.4750652,417.4750652,0.0220871,[-0.45740740740740743],[0.08148148148148149],[1],[0],[0],[1.8650598998647183],['target'],2,1,2022-09-29_18h12.04.146,Tutorial_3,2022.2.4,60.20563837
153,0,153,0,5,419.3715476,419.3715476,0.0242327,[-0.45185185185185184],[-0.21574074074074073],[1],[0],[0],[1.8808228999841958],['target'],2,1,2022-09-29_18h12.04.146,Tutorial_3,2022.2.4,60.20563837
154,0,154,0,5,421.2766281,421.2766281,0.0206434,[0.06666666666666667],[-0.012962962962962963],[1],[0],[0],[5.05930249998346],['target'],2,1,2022-09-29_18h12.04.146,Tutorial_3,2022.2.4,60.20563837
155,0,155,0,10,426.3775252,426.3775252,0.0311032,[-0.4703703703703704],[0.4],[1],[0],[0],[2.1565805999562144],['target'],2,1,2022-09-29_18h12.04.146,Tutorial_3,2022.2.4,60.20563837
156,0,156,0,5,428.562162,428.562162,0.0247698,[0.34074074074074073],[-0.15925925925925927],[1],[0],[0],[2.3118203000631183],['target'],2,1,2022-09-29_18h12.04.146,Tutorial_3,2022.2.4,60.20563837
157,0,157,0,10,430.9234502,430.9234502,0.0376744,[-0.06296296296296296],[0.3861111111111111],[1],[0],[0],[3.878598100040108],['target'],2,1,2022-09-29_18h12.04.146,Tutorial_3,2022.2.4,60.20563837
158,0,158,0,10,434.8407804,434.8407804,0.0313991,[-0.4601851851851852],[0.2074074074074074],[1],[0],[0],[2.5376913000363857],['target'],2,1,2022-09-29_18h12.04.146,Tutorial_3,2022.2.4,60.20563837
159,0,159,0,5,437.4053094,437.4053094,0.0248289,[0.1527777777777778],[-0.39444444444444443],[1],[0],[0],[2.3626848000567406],['target'],2,1,2022-09-29_18h12.04.146,Tutorial_3,2022.2.4,60.20563837
160,0,160,0,10,439.8190276,439.8190276,0.0396192,[-0.44074074074074077],[-0.3824074074074074],[1],[0],[0],[1.9817954001482576],['target'],2,1,2022-09-29_18h12.04.146,Tutorial_3,2022.2.4,60.20563837
161,0,161,0,10,441.8392867,441.8392867,0.0339934,[-0.18055555555555555],[-0.125],[1],[0],[0],[2.60192560008727],['target'],2,1,2022-09-29_18h12.04.146,Tutorial_3,2022.2.4,60.20563837
162,0,162,0,10,444.4851394,444.4851394,0.0360496,[-0.16203703703703703],[0.225],[1],[0],[0],[2.8154672998934984],['target'],2,1,2022-09-29_18h12.04.146,Tutorial_3,2022.2.4,60.20563837
163,0,163,0,10,447.32991,447.32991,0.0254686,[-0.053703703703703705],[-0.18518518518518517],[1],[0],[0],[1.9326762999407947],['target'],2,1,2022-09-29_18h12.04.146,Tutorial_3,2022.2.4,60.20563837
164,0,164,0,10,449.2986011,449.2986011,0.0330314,[-0.15648148148148147],[-0.22962962962962963],[1],[0],[0],[1.5224415000993758],['target'],2,1,2022-09-29_18h12.04.146,Tutorial_3,2022.2.4,60.20563837
165,0,165,0,5,450.8494535,450.8494535,0.0212099,[-0.06666666666666667],[-0.2935185185185185],[1],[0],[0],[1.6327583999373019],['target'],2,1,2022-09-29_18h12.04.146,Tutorial_3,2022.2.4,60.20563837
166,0,166,0,5,452.5162416,452.5162416,0.024954,[-0.45185185185185184],[-0.16666666666666666],[1],[0],[0],[1.62863830011338],['target'],2,1,2022-09-29_18h12.04.146,Tutorial_3,2022.2.4,60.20563837
167,0,167,0,10,454.1982774,454.1982774,0.0417802,[-0.013888888888888888],[0.05925925925925926],[1],[0],[0],[2.8607270000502467],['target'],2,1,2022-09-29_18h12.04.146,Tutorial_3,2022.2.4,60.20563837
168,0,168,0,10,457.1065011,457.1065011,0.0362716,[-0.2222222222222222],[-0.24722222222222223],[1],[0],[0],[1.701967699918896],['target'],2,1,2022-09-29_18h12.04.146,Tutorial_3,2022.2.4,60.20563837
169,0,169,0,10,458.8391052,458.8391052,0.0327968,[-0.11851851851851852],[-0.23796296296296296],[1],[0],[0],[2.4204735001549125],['target'],2,1,2022-09-29_18h12.04.146,Tutorial_3,2022.2.4,60.20563837
170,0,170,0,10,461.3018604,461.3018604,0.0358845,[-0.37777777777777777],[-0.29444444444444445],[1],[0],[0],[2.0342085000593215],['target'],2,1,2022-09-29_18h12.04.146,Tutorial_3,2022.2.4,60.20563837
171,0,171,0,10,463.3823117,463.3823117,0.0359197,[-0.06666666666666667],[-0.009259259259259259],[1],[0],[0],[2.0354496999643743],['target'],2,1,2022-09-29_18h12.04.146,Tutorial_3,2022.2.4,60.20563837
172,0,172,0,10,465.4568336,465.4568336,0.0307953,[-0.14166666666666666],[-0.11574074074074074],[1],[0],[0],[1.9233416998758912],['target'],2,1,2022-09-29_18h12.04.146,Tutorial_3,2022.2.4,60.20563837
173,0,173,0,10,467.414674,467.414674,0.0272476,[-0.20555555555555555],[0.35462962962962963],[1],[0],[0],[4.1547417000401765],['target'],2,1,2022-09-29_18h12.04.146,Tutorial_3,2022.2.4,60.20563837
174,0,174,0,5,471.5962195,471.5962195,0.0259818,[-0.1287037037037037],[-0.43333333333333335],[1],[0],[0],[1.7459478999953717],['target'],2,1,2022-09-29_18h12.04.146,Tutorial_3,2022.2.4,60.20563837
175,0,175,0,10,473.3929846,473.3929846,0.0394225,[0.10185185185185185],[0.14074074074074075],[1],[0],[0],[3.676876600133255],['target'],2,1,2022-09-29_18h12.04.146,Tutorial_3,2022.2.4,60.20563837
176,0,176,0,10,477.1239404,477.1239404,0.0484727,[-0.06666666666666667],[-0.35648148148148145],[1],[0],[0],[2.5538720001932234],['target'],2,1,2022-09-29_18h12.04.146,Tutorial_3,2022.2.4,60.20563837
177,0,177,0,5,479.7046402,479.7046402,0.0232595,[-0.25925925925925924],[0.31574074074074077],[1],[0],[0],[1.831117699854076],['target'],2,1,2022-09-29_18h12.04.146,Tutorial_3,2022.2.4,60.20563837
178,0,178,0,10,481.5995274,481.5995274,0.0502808,[-0.45925925925925926],[-0.1814814814814815],[1],[0],[0],[1.9550477999728173],['target'],2,1,2022-09-29_18h12.04.146,Tutorial_3,2022.2.4,60.20563837
179,0,179,0,5,483.5811327,483.5811327,0.0248922,[0.49166666666666664],[-0.2722222222222222],[1],[0],[0],[4.439094499917701],['target'],2,1,2022-09-29_18h12.04.146,Tutorial_3,2022.2.4,60.20563837
180,0,180,0,10,488.0762405,488.0762405,0.0414527,[-0.001851851851851852],[0.2916666666666667],[1],[0],[0],[3.1598791999276727],['target'],2,1,2022-09-29_18h12.04.146,Tutorial_3,2022.2.4,60.20563837
181,0,181,0,10,491.2724632,491.2724632,0.0345322,[-0.3398148148148148],[0.11944444444444445],[1],[0],[0],[2.7678483999334276],['target'],2,1,2022-09-29_18h12.04.146,Tutorial_3,2022.2.4,60.20563837
182,0,182,0,5,494.0718817,494.0718817,0.0255564,[-0.18703703703703703],[-0.21851851851851853],[1],[0],[0],[1.8459473999682814],['target'],2,1,2022-09-29_18h12.04.146,Tutorial_3,2022.2.4,60.20563837
183,0,183,0,5,495.9465969,495.9465969,0.0243612,[-0.14444444444444443],[-0.30277777777777776],[1],[0],[0],[1.4141168999485672],['target'],2,1,2022-09-29_18h12.04.146,Tutorial_3,2022.2.4,60.20563837
184,0,184,0,10,497.3841671,497.3841671,0.0216641,[-0.1935185185185185],[0.2759259259259259],[1],[0],[0],[2.7857835998293012],['target'],2,1,2022-09-29_18h12.04.146,Tutorial_3,2022.2.4,60.20563837
185,0,185,0,10,500.2143314,500.2143314,0.0318375,[0.44537037037037036],[-0.4324074074074074],[1],[0],[0],[3.283253700006753],['target'],2,1,2022-09-29_18h12.04.146,Tutorial_3,2022.2.4,60.20563837
186,0,186,0,5,503.5202228,503.5202228,0.0173715,[0.16018518518518518],[-0.13333333333333333],[1],[0],[0],[1.8686226999852806],['target'],2,1,2022-09-29_18h12.04.146,Tutorial_3,2022.2.4,60.20563837
187,0,187,0,5,505.4211238,505.4211238,0.0227195,[-0.1648148148148148],[0.2777777777777778],[1],[0],[0],[2.3479855000041425],['target'],2,1,2022-09-29_18h12.04.146,Tutorial_3,2022.2.4,60.20563837
188,0,188,0,10,507.8098041,507.8098041,0.0362132,[0.05],[0.32222222222222224],[1],[0],[0],[3.730259200092405],['target'],2,1,2022-09-29_18h12.04.146,Tutorial_3,2022.2.4,60.20563837
189,0,189,0,10,511.5810728,511.5810728,0.0325592,[0.11481481481481481],[0.009259259259259259],[1],[0],[0],[3.3678572999779135],['target'],2,1,2022-09-29_18h12.04.146,Tutorial_3,2022.2.4,60.20563837
190,0,190,0,10,514.9907647,514.9907647,0.0364051,[0.4111111111111111],[0.2064814814814815],[1],[0],[0],[1.7848193999379873],['target'],2,1,2022-09-29_18h12.04.146,Tutorial_3,2022.2.4,60.20563837
191,0,191,0,10,516.8201325,516.8201325,0.0356565,[-0.025925925925925925],[0.1259259259259259],[1],[0],[0],[8.517991800094023],['target'],2,1,2022-09-29_18h12.04.146,Tutorial_3,2022.2.4,60.20563837
192,0,192,0,10,525.3768381,525.3768381,0.033183,[0.2916666666666667],[0.34444444444444444],[1],[0],[0],[2.1705509000457823],['target'],2,1,2022-09-29_18h12.04.146,Tutorial_3,2022.2.4,60.20563837
193,0,193,0,10,527.5872433,527.5872433,0.034038,[0.21851851851851853],[0.25277777777777777],[1],[0],[0],[1.9539214000105858],['target'],2,1,2022-09-29_18h12.04.146,Tutorial_3,2022.2.4,60.20563837
194,0,194,0,5,529.570858,529.570858,0.0264396,[0.3768518518518518],[0.23055555555555557],[1],[0],[0],[1.9612656999379396],['target'],2,1,2022-09-29_18h12.04.146,Tutorial_3,2022.2.4,60.20563837
195,0,195,0,5,531.5654777,531.5654777,0.0257126,[0.44814814814814813],[-0.2324074074074074],[1],[0],[0],[2.0455113002099097],['target'],2,1,2022-09-29_18h12.04.146,Tutorial_3,2022.2.4,60.20563837
196,0,196,0,5,533.6396881,533.6396881,0.022114,[-0.13703703703703704],[0.15092592592592594],[1],[0],[0],[1.9983791999984533],['target'],2,1,2022-09-29_18h12.04.146,Tutorial_3,2022.2.4,60.20563837
197,0,197,0,10,535.6864394,535.6864394,0.0365551,[-0.3731481481481482],[-0.44814814814814813],[1],[0],[0],[3.646920299855992],['target'],2,1,2022-09-29_18h12.04.146,Tutorial_3,2022.2.4,60.20563837
198,0,198,0,5,539.3452227,539.3452227,0.0138003,[-0.20462962962962963],[0.09537037037037037],[1],[0],[0],[1.8104407999198884],['target'],2,1,2022-09-29_18h12.04.146,Tutorial_3,2022.2.4,60.20563837
199,0,199,0,5,541.1891012,541.1891012,0.0227405,[-0.20462962962962963],[0.09537037037037037],[1],[0],[0],[0.718871199991554],[],2,1,2022-09-29_18h12.04.146,Tutorial_3,2022.2.4,60.20563837
