trials.thisRepN,trials.thisTrialN,trials.thisN,trials.thisIndex,num_distr,fixation.started,target.started,mouse.started,mouse.x,mouse.y,mouse.leftButton,mouse.midButton,mouse.rightButton,mouse.time,mouse.clicked_name,participant,session,date,expName,psychopyVersion,frameRate
0,0,0,0,5,31.6908537,31.6908537,0.030754,[-0.23148148148148148],[-0.32407407407407407],[1],[0],[0],[2.1110139000229537],['target'],1,1,2022-09-29_17h00.18.301,Tutorial_3,2022.2.4,60.31494048
1,0,1,0,5,33.8267375,33.8267375,0.0263843,[0.1398148148148148],[0.32685185185185184],[1],[0],[0],[2.5403424999676645],['target'],1,1,2022-09-29_17h00.18.301,Tutorial_3,2022.2.4,60.31494048
2,0,2,0,10,36.4279809,36.4279809,0.0481148,[0.4444444444444444],[0.3175925925925926],[1],[0],[0],[2.305614900076762],['target'],1,1,2022-09-29_17h00.18.301,Tutorial_3,2022.2.4,60.31494048
3,0,3,0,10,38.7765084,38.7765084,0.0380037,[0.45555555555555555],[-0.44722222222222224],[1],[0],[0],[3.5449228999204934],['target'],1,1,2022-09-29_17h00.18.301,Tutorial_3,2022.2.4,60.31494048
4,0,4,0,5,42.3338432,42.3338432,0.013337,[-0.3398148148148148],[0.24074074074074073],[1],[0],[0],[1.7947323999833316],['target'],1,1,2022-09-29_17h00.18.301,Tutorial_3,2022.2.4,60.31494048
5,0,5,0,10,44.184105,44.184105,0.0424875,[0.0824074074074074],[-0.33796296296296297],[1],[0],[0],[3.5413802000693977],['target'],1,1,2022-09-29_17h00.18.301,Tutorial_3,2022.2.4,60.31494048
6,0,6,0,10,47.7662358,47.7662358,0.0338699,[-0.13240740740740742],[-0.4842592592592593],[1],[0],[0],[3.283127900213003],['target'],1,1,2022-09-29_17h00.18.301,Tutorial_3,2022.2.4,60.31494048
7,0,7,0,10,51.0981179,51.0981179,0.0441684,[-0.12037037037037036],[0.41574074074074074],[1],[0],[0],[1.8111743000335991],['target'],1,1,2022-09-29_17h00.18.301,Tutorial_3,2022.2.4,60.31494048
8,0,8,0,10,52.9491164,52.9491164,0.0321567,[0.27870370370370373],[-0.16574074074074074],[1],[0],[0],[2.7037722000386566],['target'],1,1,2022-09-29_17h00.18.301,Tutorial_3,2022.2.4,60.31494048
9,0,9,0,5,55.6753001,55.6753001,0.021925,[-0.14444444444444443],[-0.13055555555555556],[1],[0],[0],[1.2346306000836194],['target'],1,1,2022-09-29_17h00.18.301,Tutorial_3,2022.2.4,60.31494048
10,0,10,0,5,56.9431319,56.9431319,0.0246321,[0.13796296296296295],[-0.14074074074074075],[1],[0],[0],[1.4480128998402506],['target'],1,1,2022-09-29_17h00.18.301,Tutorial_3,2022.2.4,60.31494048
11,0,11,0,5,58.4227288,58.4227288,0.0257822,[0.22314814814814815],[0.10648148148148148],[1],[0],[0],[1.5629509999416769],['target'],1,1,2022-09-29_17h00.18.301,Tutorial_3,2022.2.4,60.31494048
12,0,12,0,5,60.0187572,60.0187572,0.0242986,[0.3138888888888889],[0.2101851851851852],[1],[0],[0],[1.315415299963206],['target'],1,1,2022-09-29_17h00.18.301,Tutorial_3,2022.2.4,60.31494048
13,0,13,0,5,61.3587777,61.3587777,0.0195221,[0.3111111111111111],[0.3138888888888889],[1],[0],[0],[1.2869565000291914],['target'],1,1,2022-09-29_17h00.18.301,Tutorial_3,2022.2.4,60.31494048
14,0,14,0,10,62.6947206,62.6947206,0.0404851,[0.032407407407407406],[0.06851851851851852],[1],[0],[0],[1.7473279000259936],['target'],1,1,2022-09-29_17h00.18.301,Tutorial_3,2022.2.4,60.31494048
15,0,15,0,5,64.4698402,64.4698402,0.0178629,[-0.26851851851851855],[0.032407407407407406],[1],[0],[0],[1.8343847000505775],['target'],1,1,2022-09-29_17h00.18.301,Tutorial_3,2022.2.4,60.31494048
16,0,16,0,5,66.3345524,66.3345524,0.0236803,[-0.16666666666666666],[-0.3037037037037037],[1],[0],[0],[2.4120050000492483],['target'],1,1,2022-09-29_17h00.18.301,Tutorial_3,2022.2.4,60.31494048
17,0,17,0,10,68.8003717,68.8003717,0.0442864,[0.4703703703703704],[0.24722222222222223],[1],[0],[0],[2.359756799880415],['target'],1,1,2022-09-29_17h00.18.301,Tutorial_3,2022.2.4,60.31494048
18,0,18,0,10,71.2009593,71.2009593,0.0329147,[-0.0787037037037037],[0.16574074074074074],[1],[0],[0],[1.6058912998996675],['target'],1,1,2022-09-29_17h00.18.301,Tutorial_3,2022.2.4,60.31494048
19,0,19,0,10,72.8528589,72.8528589,0.0384141,[-0.3907407407407407],[0.3712962962962963],[1],[0],[0],[1.7819052999839187],['target'],1,1,2022-09-29_17h00.18.301,Tutorial_3,2022.2.4,60.31494048
20,0,20,0,5,74.6562654,74.6562654,0.0201309,[0.12777777777777777],[0.4287037037037037],[1],[0],[0],[1.7190163000486791],['target'],1,1,2022-09-29_17h00.18.301,Tutorial_3,2022.2.4,60.31494048
21,0,21,0,5,76.4153043,76.4153043,0.0344789,[0.11666666666666667],[0.21296296296296297],[1],[0],[0],[1.9033800000324845],['target'],1,1,2022-09-29_17h00.18.301,Tutorial_3,2022.2.4,60.31494048
22,0,22,0,10,78.368093,78.368093,0.0409903,[0.053703703703703705],[0.31296296296296294],[1],[0],[0],[3.7252404000610113],['target'],1,1,2022-09-29_17h00.18.301,Tutorial_3,2022.2.4,60.31494048
23,0,23,0,5,82.1212444,82.1212444,0.02155,[0.32222222222222224],[-0.20925925925925926],[1],[0],[0],[2.5643054000101984],['target'],1,1,2022-09-29_17h00.18.301,Tutorial_3,2022.2.4,60.31494048
24,0,24,0,10,84.7335843,84.7335843,0.0373867,[-0.21574074074074073],[0.25277777777777777],[1],[0],[0],[5.374539999989793],['target'],1,1,2022-09-29_17h00.18.301,Tutorial_3,2022.2.4,60.31494048
25,0,25,0,5,90.1335584,90.1335584,0.0224142,[0.387037037037037],[-0.03796296296296296],[1],[0],[0],[2.2817875999026],['target'],1,1,2022-09-29_17h00.18.301,Tutorial_3,2022.2.4,60.31494048
26,0,26,0,10,92.4621351,92.4621351,0.0351224,[-0.31203703703703706],[-0.0962962962962963],[1],[0],[0],[4.343030799878761],['target'],1,1,2022-09-29_17h00.18.301,Tutorial_3,2022.2.4,60.31494048
27,0,27,0,5,96.8345815,96.8345815,0.0213311,[-0.4564814814814815],[-0.027777777777777776],[1],[0],[0],[2.9132304000668228],['target'],1,1,2022-09-29_17h00.18.301,Tutorial_3,2022.2.4,60.31494048
28,0,28,0,10,99.8040719,99.8040719,0.0472241,[0.29074074074074074],[0.2111111111111111],[1],[0],[0],[2.8716428000479937],['target'],1,1,2022-09-29_17h00.18.301,Tutorial_3,2022.2.4,60.31494048
29,0,29,0,10,102.7235152,102.7235152,0.0360071,[-0.4222222222222222],[-0.41388888888888886],[1],[0],[0],[4.062167500145733],['target'],1,1,2022-09-29_17h00.18.301,Tutorial_3,2022.2.4,60.31494048
30,0,30,0,10,106.8268065,106.8268065,0.0432978,[0.044444444444444446],[0.07407407407407407],[1],[0],[0],[2.6598656000569463],['target'],1,1,2022-09-29_17h00.18.301,Tutorial_3,2022.2.4,60.31494048
31,0,31,0,5,109.507216,109.507216,0.0162812,[0.18703703703703703],[0.22870370370370371],[1],[0],[0],[1.4235306000337005],['target'],1,1,2022-09-29_17h00.18.301,Tutorial_3,2022.2.4,60.31494048
32,0,32,0,5,110.9665293,110.9665293,0.028386,[-0.29907407407407405],[-0.017592592592592594],[1],[0],[0],[1.9756964000407606],['target'],1,1,2022-09-29_17h00.18.301,Tutorial_3,2022.2.4,60.31494048
33,0,33,0,10,112.9968586,112.9968586,0.0411332,[-0.2824074074074074],[-0.2074074074074074],[1],[0],[0],[3.772948799887672],['target'],1,1,2022-09-29_17h00.18.301,Tutorial_3,2022.2.4,60.31494048
34,0,34,0,10,116.8137949,116.8137949,0.0386271,[-0.16203703703703703],[-0.2851851851851852],[1],[0],[0],[2.082919199950993],['target'],1,1,2022-09-29_17h00.18.301,Tutorial_3,2022.2.4,60.31494048
35,0,35,0,10,118.9376924,118.9376924,0.0348209,[-0.32407407407407407],[-0.13333333333333333],[1],[0],[0],[3.050321100046858],['target'],1,1,2022-09-29_17h00.18.301,Tutorial_3,2022.2.4,60.31494048
36,0,36,0,10,122.0311185,122.0311185,0.0389392,[0.12037037037037036],[-0.04351851851851852],[1],[0],[0],[1.5161447001155466],['target'],1,1,2022-09-29_17h00.18.301,Tutorial_3,2022.2.4,60.31494048
37,0,37,0,10,123.5947772,123.5947772,0.0412826,[0.24074074074074073],[-0.425],[1],[0],[0],[3.3094117001164705],['target'],1,1,2022-09-29_17h00.18.301,Tutorial_3,2022.2.4,60.31494048
38,0,38,0,5,126.9354309,126.9354309,0.0230212,[0.2962962962962963],[-0.4203703703703704],[1],[0],[0],[7.5504092001356184],['target'],1,1,2022-09-29_17h00.18.301,Tutorial_3,2022.2.4,60.31494048
39,0,39,0,10,134.5261628,134.5261628,0.0316539,[0.41759259259259257],[-0.46296296296296297],[1],[0],[0],[4.997222000034526],['target'],1,1,2022-09-29_17h00.18.301,Tutorial_3,2022.2.4,60.31494048
40,0,40,0,5,139.5531454,139.5531454,0.0248774,[0.42314814814814816],[0.053703703703703705],[1],[0],[0],[2.8761652999091893],['target'],1,1,2022-09-29_17h00.18.301,Tutorial_3,2022.2.4,60.31494048
41,0,41,0,10,142.4797211,142.4797211,0.0381214,[-0.20092592592592592],[-0.1712962962962963],[1],[0],[0],[3.595360699808225],['target'],1,1,2022-09-29_17h00.18.301,Tutorial_3,2022.2.4,60.31494048
42,0,42,0,5,146.1002572,146.1002572,0.0240505,[-0.39444444444444443],[0.3611111111111111],[1],[0],[0],[2.794299399945885],['target'],1,1,2022-09-29_17h00.18.301,Tutorial_3,2022.2.4,60.31494048
43,0,43,0,10,148.9452059,148.9452059,0.0395087,[-0.06759259259259259],[0.3287037037037037],[1],[0],[0],[2.0813263000454754],['target'],1,1,2022-09-29_17h00.18.301,Tutorial_3,2022.2.4,60.31494048
44,0,44,0,10,151.0652748,151.0652748,0.0318753,[-0.3138888888888889],[0.14907407407407408],[1],[0],[0],[2.2057948999572545],['target'],1,1,2022-09-29_17h00.18.301,Tutorial_3,2022.2.4,60.31494048
45,0,45,0,10,153.3110106,153.3110106,0.0336607,[0.010185185185185186],[0.3111111111111111],[1],[0],[0],[1.9708442001137882],['target'],1,1,2022-09-29_17h00.18.301,Tutorial_3,2022.2.4,60.31494048
46,0,46,0,10,155.323678,155.323678,0.0359164,[-0.3648148148148148],[-0.15925925925925927],[1],[0],[0],[1.9854492000304163],['target'],1,1,2022-09-29_17h00.18.301,Tutorial_3,2022.2.4,60.31494048
47,0,47,0,10,157.3427864,157.3427864,0.0299381,[0.4027777777777778],[-0.2777777777777778],[1],[0],[0],[2.4393052998930216],['target'],1,1,2022-09-29_17h00.18.301,Tutorial_3,2022.2.4,60.31494048
48,0,48,0,5,159.8117741,159.8117741,0.0234971,[0.22592592592592592],[0.37407407407407406],[1],[0],[0],[2.4464991001877934],['target'],1,1,2022-09-29_17h00.18.301,Tutorial_3,2022.2.4,60.31494048
49,0,49,0,10,162.3060312,162.3060312,0.0371591,[-0.2824074074074074],[0.32407407407407407],[1],[0],[0],[2.033427899936214],['target'],1,1,2022-09-29_17h00.18.301,Tutorial_3,2022.2.4,60.31494048
50,0,50,0,5,164.3665668,164.3665668,0.0236179,[-0.19537037037037036],[0.041666666666666664],[1],[0],[0],[1.382743899943307],['target'],1,1,2022-09-29_17h00.18.301,Tutorial_3,2022.2.4,60.31494048
51,0,51,0,5,165.7787353,165.7787353,0.0240609,[0.21944444444444444],[-0.17314814814814813],[1],[0],[0],[1.9977541998960078],['target'],1,1,2022-09-29_17h00.18.301,Tutorial_3,2022.2.4,60.31494048
52,0,52,0,10,167.8277192,167.8277192,0.0440686,[0.14074074074074075],[0.2490740740740741],[1],[0],[0],[2.125834599835798],['target'],1,1,2022-09-29_17h00.18.301,Tutorial_3,2022.2.4,60.31494048
53,0,53,0,10,170.0230129,170.0230129,0.0516788,[-0.29444444444444445],[0.027777777777777776],[1],[0],[0],[1.7502683999482542],['target'],1,1,2022-09-29_17h00.18.301,Tutorial_3,2022.2.4,60.31494048
54,0,54,0,5,171.80065,171.80065,0.023135,[-0.27685185185185185],[0.4324074074074074],[1],[0],[0],[3.211889000143856],['target'],1,1,2022-09-29_17h00.18.301,Tutorial_3,2022.2.4,60.31494048
55,0,55,0,5,175.0480593,175.0480593,0.0289953,[-0.17037037037037037],[0.11666666666666667],[1],[0],[0],[1.8917858998756856],['target'],1,1,2022-09-29_17h00.18.301,Tutorial_3,2022.2.4,60.31494048
56,0,56,0,10,176.9863914,176.9863914,0.0400423,[0.12407407407407407],[-0.062037037037037036],[1],[0],[0],[2.1811280001420528],['target'],1,1,2022-09-29_17h00.18.301,Tutorial_3,2022.2.4,60.31494048
57,0,57,0,10,179.2288039,179.2288039,0.0506649,[0.14907407407407408],[0.18703703703703703],[1],[0],[0],[1.7369035999290645],['target'],1,1,2022-09-29_17h00.18.301,Tutorial_3,2022.2.4,60.31494048
58,0,58,0,5,180.9919768,180.9919768,0.0272517,[-0.2898148148148148],[0.30092592592592593],[1],[0],[0],[2.858815599931404],['target'],1,1,2022-09-29_17h00.18.301,Tutorial_3,2022.2.4,60.31494048
59,0,59,0,5,183.8832178,183.8832178,0.0246986,[0.3787037037037037],[0.26296296296296295],[1],[0],[0],[2.0450621000491083],['target'],1,1,2022-09-29_17h00.18.301,Tutorial_3,2022.2.4,60.31494048
60,0,60,0,5,185.9576914,185.9576914,0.0236745,[0.2722222222222222],[0.1],[1],[0],[0],[1.5313009000383317],['target'],1,1,2022-09-29_17h00.18.301,Tutorial_3,2022.2.4,60.31494048
61,0,61,0,10,187.5412196,187.5412196,0.0398851,[-0.1574074074074074],[-0.2953703703703704],[1],[0],[0],[3.028252199990675],['target'],1,1,2022-09-29_17h00.18.301,Tutorial_3,2022.2.4,60.31494048
62,0,62,0,10,190.6104981,190.6104981,0.0320606,[-0.24722222222222223],[-0.012962962962962963],[1],[0],[0],[2.6712758000940084],['target'],1,1,2022-09-29_17h00.18.301,Tutorial_3,2022.2.4,60.31494048
63,0,63,0,5,193.3070019,193.3070019,0.0272932,[-0.487962962962963],[0.325],[1],[0],[0],[2.0940723998937756],['target'],1,1,2022-09-29_17h00.18.301,Tutorial_3,2022.2.4,60.31494048
64,0,64,0,5,195.4214309,195.4214309,0.0153121,[-0.41574074074074074],[0.14722222222222223],[1],[0],[0],[1.4574960998725146],['target'],1,1,2022-09-29_17h00.18.301,Tutorial_3,2022.2.4,60.31494048
65,0,65,0,10,196.920419,196.920419,0.0295578,[-0.41574074074074074],[0.14722222222222223],[1],[0],[0],[0.981313900090754],['target'],1,1,2022-09-29_17h00.18.301,Tutorial_3,2022.2.4,60.31494048
66,0,66,0,10,197.9228077,197.9228077,0.025069,[-0.4583333333333333],[0.13425925925925927],[1],[0],[0],[1.898488000035286],['target'],1,1,2022-09-29_17h00.18.301,Tutorial_3,2022.2.4,60.31494048
67,0,67,0,10,199.8530979,199.8530979,0.0259576,[-0.13425925925925927],[0.12962962962962962],[1],[0],[0],[3.412163200089708],['target'],1,1,2022-09-29_17h00.18.301,Tutorial_3,2022.2.4,60.31494048
68,0,68,0,10,203.3119276,203.3119276,0.0390553,[-0.2962962962962963],[0.08148148148148149],[1],[0],[0],[1.6001517998520285],['target'],1,1,2022-09-29_17h00.18.301,Tutorial_3,2022.2.4,60.31494048
69,0,69,0,5,204.9365231,204.9365231,0.0205766,[0.08888888888888889],[-0.14537037037037037],[1],[0],[0],[2.4493680000305176],['target'],1,1,2022-09-29_17h00.18.301,Tutorial_3,2022.2.4,60.31494048
70,0,70,0,5,207.4209829,207.4209829,0.0261389,[-0.013888888888888888],[0.3055555555555556],[1],[0],[0],[2.0941614999901503],['target'],1,1,2022-09-29_17h00.18.301,Tutorial_3,2022.2.4,60.31494048
71,0,71,0,10,209.5567714,209.5567714,0.0314291,[-0.30092592592592593],[-0.2953703703703704],[1],[0],[0],[2.437766300048679],['target'],1,1,2022-09-29_17h00.18.301,Tutorial_3,2022.2.4,60.31494048
72,0,72,0,10,212.039078,212.039078,0.0378238,[-0.16203703703703703],[0.4564814814814815],[1],[0],[0],[5.789502300089225],['target'],1,1,2022-09-29_17h00.18.301,Tutorial_3,2022.2.4,60.31494048
73,0,73,0,5,217.8536261,217.8536261,0.0227645,[0.17314814814814813],[-0.42962962962962964],[1],[0],[0],[3.4279771000146866],['target'],1,1,2022-09-29_17h00.18.301,Tutorial_3,2022.2.4,60.31494048
74,0,74,0,5,221.3083959,221.3083959,0.0215628,[0.362962962962963],[0.06296296296296296],[1],[0],[0],[1.749682400142774],['target'],1,1,2022-09-29_17h00.18.301,Tutorial_3,2022.2.4,60.31494048
75,0,75,0,10,223.113198,223.113198,0.0472334,[0.0824074074074074],[0.3907407407407407],[1],[0],[0],[2.273443400161341],['target'],1,1,2022-09-29_17h00.18.301,Tutorial_3,2022.2.4,60.31494048
76,0,76,0,5,225.4161251,225.4161251,0.0218298,[0.041666666666666664],[-0.33055555555555555],[1],[0],[0],[2.647417000029236],['target'],1,1,2022-09-29_17h00.18.301,Tutorial_3,2022.2.4,60.31494048
77,0,77,0,10,228.1111062,228.1111062,0.0382218,[0.2611111111111111],[-0.1824074074074074],[1],[0],[0],[2.4314667999278754],['target'],1,1,2022-09-29_17h00.18.301,Tutorial_3,2022.2.4,60.31494048
78,0,78,0,5,230.5708245,230.5708245,0.0240128,[-0.2601851851851852],[-0.3888888888888889],[1],[0],[0],[2.7941745999269187],['target'],1,1,2022-09-29_17h00.18.301,Tutorial_3,2022.2.4,60.31494048
79,0,79,0,5,233.3962614,233.3962614,0.0252634,[-0.18425925925925926],[0.09814814814814815],[1],[0],[0],[1.7802300998009741],['target'],1,1,2022-09-29_17h00.18.301,Tutorial_3,2022.2.4,60.31494048
80,0,80,0,5,235.2083127,235.2083127,0.0238457,[0.09722222222222222],[-0.16296296296296298],[1],[0],[0],[2.2297985998447984],['target'],1,1,2022-09-29_17h00.18.301,Tutorial_3,2022.2.4,60.31494048
81,0,81,0,10,237.4851777,237.4851777,0.0387489,[0.3453703703703704],[0.15],[1],[0],[0],[1.9319496001116931],['target'],1,1,2022-09-29_17h00.18.301,Tutorial_3,2022.2.4,60.31494048
82,0,82,0,5,239.4419118,239.4419118,0.0214452,[-0.3925925925925926],[-0.09351851851851851],[1],[0],[0],[2.3484781000297517],['target'],1,1,2022-09-29_17h00.18.301,Tutorial_3,2022.2.4,60.31494048
83,0,83,0,10,241.8396764,241.8396764,0.0363767,[0.4962962962962963],[0.3787037037037037],[1],[0],[0],[3.26463139988482],['target'],1,1,2022-09-29_17h00.18.301,Tutorial_3,2022.2.4,60.31494048
84,0,84,0,5,245.1361902,245.1361902,0.022732,[-0.09537037037037037],[-0.12685185185185185],[1],[0],[0],[1.5663113999180496],['target'],1,1,2022-09-29_17h00.18.301,Tutorial_3,2022.2.4,60.31494048
85,0,85,0,5,246.7280078,246.7280078,0.024147,[0.36574074074074076],[0.36203703703703705],[1],[0],[0],[1.5976462999824435],['target'],1,1,2022-09-29_17h00.18.301,Tutorial_3,2022.2.4,60.31494048
86,0,86,0,5,248.3605879,248.3605879,0.0267323,[-0.06018518518518518],[0.053703703703703705],[1],[0],[0],[1.729235399980098],['target'],1,1,2022-09-29_17h00.18.301,Tutorial_3,2022.2.4,60.31494048
87,0,87,0,10,250.1391102,250.1391102,0.0367412,[0.30462962962962964],[0.11851851851851852],[1],[0],[0],[1.9015192999504507],['target'],1,1,2022-09-29_17h00.18.301,Tutorial_3,2022.2.4,60.31494048
88,0,88,0,10,252.0833237,252.0833237,0.0412409,[0.4888888888888889],[-0.14444444444444443],[1],[0],[0],[1.9116533999331295],['target'],1,1,2022-09-29_17h00.18.301,Tutorial_3,2022.2.4,60.31494048
89,0,89,0,10,254.0384262,254.0384262,0.0321188,[0.3212962962962963],[0.23425925925925925],[1],[0],[0],[2.3047650000080466],['target'],1,1,2022-09-29_17h00.18.301,Tutorial_3,2022.2.4,60.31494048
90,0,90,0,5,256.366685,256.366685,0.023179,[-0.17592592592592593],[0.2361111111111111],[1],[0],[0],[1.6813064001034945],['target'],1,1,2022-09-29_17h00.18.301,Tutorial_3,2022.2.4,60.31494048
91,0,91,0,5,258.0771302,258.0771302,0.0235965,[0.175],[0.21481481481481482],[1],[0],[0],[1.582354199839756],['target'],1,1,2022-09-29_17h00.18.301,Tutorial_3,2022.2.4,60.31494048
92,0,92,0,10,259.7101839,259.7101839,0.0357142,[-0.22962962962962963],[-0.004629629629629629],[1],[0],[0],[1.5198222000617534],['target'],1,1,2022-09-29_17h00.18.301,Tutorial_3,2022.2.4,60.31494048
93,0,93,0,10,261.2631065,261.2631065,0.0338761,[-0.07037037037037037],[0.2490740740740741],[1],[0],[0],[1.6377477999776602],['target'],1,1,2022-09-29_17h00.18.301,Tutorial_3,2022.2.4,60.31494048
94,0,94,0,5,262.9375111,262.9375111,0.0275933,[0.11203703703703703],[-0.3712962962962963],[1],[0],[0],[1.6432579001411796],['target'],1,1,2022-09-29_17h00.18.301,Tutorial_3,2022.2.4,60.31494048
95,0,95,0,10,264.6500157,264.6500157,0.0517375,[0.3712962962962963],[0.33425925925925926],[1],[0],[0],[2.151934999972582],['target'],1,1,2022-09-29_17h00.18.301,Tutorial_3,2022.2.4,60.31494048
96,0,96,0,5,266.8289635,266.8289635,0.0286295,[-0.18055555555555555],[0.49537037037037035],[1],[0],[0],[3.8374476998578757],['target'],1,1,2022-09-29_17h00.18.301,Tutorial_3,2022.2.4,60.31494048
97,0,97,0,5,270.6998446,270.6998446,0.0275728,[-0.13703703703703704],[0.022222222222222223],[1],[0],[0],[1.90966030000709],['target'],1,1,2022-09-29_17h00.18.301,Tutorial_3,2022.2.4,60.31494048
98,0,98,0,5,272.6442161,272.6442161,0.0267025,[-0.287962962962963],[0.2574074074074074],[1],[0],[0],[1.9425538999494165],['target'],1,1,2022-09-29_17h00.18.301,Tutorial_3,2022.2.4,60.31494048
99,0,99,0,5,274.6169476,274.6169476,0.0236757,[0.11296296296296296],[-0.45740740740740743],[1],[0],[0],[2.414003200130537],['target'],1,1,2022-09-29_17h00.18.301,Tutorial_3,2022.2.4,60.31494048
100,0,100,0,5,277.0604504,277.0604504,0.0246673,[-0.4564814814814815],[-0.014814814814814815],[1],[0],[0],[1.8463415999431163],['target'],1,1,2022-09-29_17h00.18.301,Tutorial_3,2022.2.4,60.31494048
101,0,101,0,10,275.3787979,275.3787979,0.0388761,[0.19537037037037036],[-0.008333333333333333],[1],[0],[0],[1.6676230998709798],['target'],2,1,2022-09-29_18h12.04.146,Tutorial_3,2022.2.4,60.20563837
102,0,102,0,5,277.0782139,277.0782139,0.0244745,[-0.21203703703703702],[-0.12222222222222222],[1],[0],[0],[1.8105518999509513],['target'],2,1,2022-09-29_18h12.04.146,Tutorial_3,2022.2.4,60.20563837
103,0,103,0,5,278.9141403,278.9141403,0.0186109,[0.3472222222222222],[0.05925925925925926],[1],[0],[0],[1.9195808998774737],['target'],2,1,2022-09-29_18h12.04.146,Tutorial_3,2022.2.4,60.20563837
104,0,104,0,5,280.8689408,280.8689408,0.0272094,[0.1814814814814815],[-0.4287037037037037],[1],[0],[0],[2.5917811000254005],['target'],2,1,2022-09-29_18h12.04.146,Tutorial_3,2022.2.4,60.20563837
105,0,105,0,5,283.4902755,283.4902755,0.0247087,[0.13518518518518519],[-0.14537037037037037],[1],[0],[0],[1.630804899847135],['target'],2,1,2022-09-29_18h12.04.146,Tutorial_3,2022.2.4,60.20563837
106,0,106,0,5,285.1487055,285.1487055,0.0212357,[-0.31296296296296294],[-0.34629629629629627],[1],[0],[0],[3.863086000084877],['target'],2,1,2022-09-29_18h12.04.146,Tutorial_3,2022.2.4,60.20563837
107,0,107,0,10,289.0352732,289.0352732,0.0216818,[-0.44074074074074077],[0.1787037037037037],[1],[0],[0],[3.2666527999099344],['target'],2,1,2022-09-29_18h12.04.146,Tutorial_3,2022.2.4,60.20563837
108,0,108,0,5,292.3353503,292.3353503,0.0266614,[-0.2972222222222222],[0.040740740740740744],[1],[0],[0],[3.2749274999368936],['target'],2,1,2022-09-29_18h12.04.146,Tutorial_3,2022.2.4,60.20563837
109,0,109,0,5,295.628925,295.628925,0.0162494,[-0.23796296296296296],[0.062037037037037036],[1],[0],[0],[1.6888564000837505],['target'],2,1,2022-09-29_18h12.04.146,Tutorial_3,2022.2.4,60.20563837
110,0,110,0,5,297.3586702,297.3586702,0.0323893,[-0.18703703703703703],[0.07777777777777778],[1],[0],[0],[1.5908838999457657],['target'],2,1,2022-09-29_18h12.04.146,Tutorial_3,2022.2.4,60.20563837
111,0,111,0,5,298.9890377,298.9890377,0.0298521,[-0.10092592592592593],[-0.33240740740740743],[1],[0],[0],[1.5085201000329107],['target'],2,1,2022-09-29_18h12.04.146,Tutorial_3,2022.2.4,60.20563837
112,0,112,0,10,300.5283839,300.5283839,0.0233601,[-0.44814814814814813],[-0.4537037037037037],[1],[0],[0],[2.182192899985239],['target'],2,1,2022-09-29_18h12.04.146,Tutorial_3,2022.2.4,60.20563837
113,0,113,0,5,302.7209791,302.7209791,0.0124819,[0.48055555555555557],[-0.3861111111111111],[1],[0],[0],[2.7253228998742998],['target'],2,1,2022-09-29_18h12.04.146,Tutorial_3,2022.2.4,60.20563837
114,0,114,0,10,305.4952317,305.4952317,0.0316377,[-0.025],[-0.08796296296296297],[1],[0],[0],[2.4211832999717444],['target'],2,1,2022-09-29_18h12.04.146,Tutorial_3,2022.2.4,60.20563837
115,0,115,0,5,307.9333116,307.9333116,0.0178142,[0.44814814814814813],[0.3138888888888889],[1],[0],[0],[2.1677627000026405],['target'],2,1,2022-09-29_18h12.04.146,Tutorial_3,2022.2.4,60.20563837
116,0,116,0,5,310.1383617,310.1383617,0.0276129,[-0.387037037037037],[0.325],[1],[0],[0],[1.7581326998770237],['target'],2,1,2022-09-29_18h12.04.146,Tutorial_3,2022.2.4,60.20563837
117,0,117,0,5,311.9288989,311.9288989,0.0232121,[0.1425925925925926],[0.04722222222222222],[1],[0],[0],[1.5495686000213027],['target'],2,1,2022-09-29_18h12.04.146,Tutorial_3,2022.2.4,60.20563837
118,0,118,0,5,313.5084806,313.5084806,0.0233243,[0.13055555555555556],[0.2861111111111111],[1],[0],[0],[1.5491054998710752],['target'],2,1,2022-09-29_18h12.04.146,Tutorial_3,2022.2.4,60.20563837
119,0,119,0,5,315.0884428,315.0884428,0.0256496,[-0.14629629629629629],[-0.1388888888888889],[1],[0],[0],[1.7794685999397188],['target'],2,1,2022-09-29_18h12.04.146,Tutorial_3,2022.2.4,60.20563837
120,0,120,0,5,316.9020491,316.9020491,0.0264133,[-0.08055555555555556],[0.36203703703703705],[1],[0],[0],[2.393296099966392],['target'],2,1,2022-09-29_18h12.04.146,Tutorial_3,2022.2.4,60.20563837
121,0,121,0,5,319.3278741,319.3278741,0.0249164,[0.07777777777777778],[0.4064814814814815],[1],[0],[0],[1.4970317999832332],['target'],2,1,2022-09-29_18h12.04.146,Tutorial_3,2022.2.4,60.20563837
122,0,122,0,10,320.8688325,320.8688325,0.03371,[0.12222222222222222],[0.4101851851851852],[1],[0],[0],[1.1901573999784887],['target'],2,1,2022-09-29_18h12.04.146,Tutorial_3,2022.2.4,60.20563837
123,0,123,0,5,322.0859889,322.0859889,0.0226586,[0.3685185185185185],[-0.002777777777777778],[1],[0],[0],[3.776168700074777],['target'],2,1,2022-09-29_18h12.04.146,Tutorial_3,2022.2.4,60.20563837
124,0,124,0,10,325.909575,325.909575,0.0358536,[0.07407407407407407],[0.2351851851851852],[1],[0],[0],[1.9536926997825503],['target'],2,1,2022-09-29_18h12.04.146,Tutorial_3,2022.2.4,60.20563837
125,0,125,0,10,327.9117413,327.9117413,0.0401336,[-0.03888888888888889],[-0.31851851851851853],[1],[0],[0],[2.328609799966216],['target'],2,1,2022-09-29_18h12.04.146,Tutorial_3,2022.2.4,60.20563837
126,0,126,0,5,330.2517927,330.2517927,0.0168794,[0.4361111111111111],[-0.3509259259259259],[1],[0],[0],[2.9530164999887347],['target'],2,1,2022-09-29_18h12.04.146,Tutorial_3,2022.2.4,60.20563837
127,0,127,0,10,333.2603008,333.2603008,0.0426102,[-0.425],[0.05555555555555555],[1],[0],[0],[3.291613799985498],['target'],2,1,2022-09-29_18h12.04.146,Tutorial_3,2022.2.4,60.20563837
128,0,128,0,10,336.5923342,336.5923342,0.0323971,[-0.2037037037037037],[0.44166666666666665],[1],[0],[0],[3.069102399982512],['target'],2,1,2022-09-29_18h12.04.146,Tutorial_3,2022.2.4,60.20563837
129,0,129,0,5,339.6849955,339.6849955,0.0222219,[0.3972222222222222],[0.04537037037037037],[1],[0],[0],[1.6165966000407934],['target'],2,1,2022-09-29_18h12.04.146,Tutorial_3,2022.2.4,60.20563837
130,0,130,0,10,341.3642374,341.3642374,0.0447503,[0.2],[0.4564814814814815],[1],[0],[0],[1.4936653999611735],['target'],2,1,2022-09-29_18h12.04.146,Tutorial_3,2022.2.4,60.20563837
131,0,131,0,5,342.875498,342.875498,0.0212847,[-0.2537037037037037],[-0.32407407407407407],[1],[0],[0],[1.867678500013426],['target'],2,1,2022-09-29_18h12.04.146,Tutorial_3,2022.2.4,60.20563837
132,0,132,0,5,344.7742395,344.7742395,0.0240436,[-0.3962962962962963],[0.44814814814814813],[1],[0],[0],[1.9467561000492424],['target'],2,1,2022-09-29_18h12.04.146,Tutorial_3,2022.2.4,60.20563837
133,0,133,0,10,346.7689837,346.7689837,0.0377846,[-0.32222222222222224],[0.3194444444444444],[1],[0],[0],[2.5164336001034826],['target'],2,1,2022-09-29_18h12.04.146,Tutorial_3,2022.2.4,60.20563837
134,0,134,0,10,349.3111298,349.3111298,0.0238081,[-0.3907407407407407],[0.44166666666666665],[1],[0],[0],[15.062701299786568],[],2,1,2022-09-29_18h12.04.146,Tutorial_3,2022.2.4,60.20563837
135,0,135,0,5,364.4036193,364.4036193,0.024012,[-0.06111111111111111],[0.2851851851851852],[1],[0],[0],[2.0629370000679046],['target'],2,1,2022-09-29_18h12.04.146,Tutorial_3,2022.2.4,60.20563837
136,0,136,0,10,366.5307283,366.5307283,0.0478574,[0.40185185185185185],[-0.16203703703703703],[1],[0],[0],[3.851229199906811],['target'],2,1,2022-09-29_18h12.04.146,Tutorial_3,2022.2.4,60.20563837
137,0,137,0,10,370.4162797,370.4162797,0.0336707,[0.3],[0.5],[1],[0],[0],[3.9491924000903964],['target'],2,1,2022-09-29_18h12.04.146,Tutorial_3,2022.2.4,60.20563837
138,0,138,0,10,374.4046129,374.4046129,0.0331344,[0.05092592592592592],[-0.3101851851851852],[1],[0],[0],[4.215358399786055],['target'],2,1,2022-09-29_18h12.04.146,Tutorial_3,2022.2.4,60.20563837
139,0,139,0,10,378.6579836,378.6579836,0.0308982,[-0.2518518518518518],[-0.18333333333333332],[1],[0],[0],[2.7048474999610335],['target'],2,1,2022-09-29_18h12.04.146,Tutorial_3,2022.2.4,60.20563837
140,0,140,0,10,381.4048336,381.4048336,0.0341111,[-0.3425925925925926],[0.4703703703703704],[1],[0],[0],[3.117900300072506],['target'],2,1,2022-09-29_18h12.04.146,Tutorial_3,2022.2.4,60.20563837
141,0,141,0,10,384.5782345,384.5782345,0.0419868,[0.2722222222222222],[-0.3037037037037037],[1],[0],[0],[6.9154855001252145],['target'],2,1,2022-09-29_18h12.04.146,Tutorial_3,2022.2.4,60.20563837
142,0,142,0,10,391.5265588,391.5265588,0.0335647,[-0.40185185185185185],[-0.1787037037037037],[1],[0],[0],[3.051235100021586],['target'],2,1,2022-09-29_18h12.04.146,Tutorial_3,2022.2.4,60.20563837
143,0,143,0,5,394.6007768,394.6007768,0.0216022,[-0.4842592592592593],[0.1],[1],[0],[0],[2.298463499872014],['target'],2,1,2022-09-29_18h12.04.146,Tutorial_3,2022.2.4,60.20563837
144,0,144,0,5,396.9320542,396.9320542,0.0244789,[-0.2796296296296296],[0.19722222222222222],[1],[0],[0],[1.582050000084564],['target'],2,1,2022-09-29_18h12.04.146,Tutorial_3,2022.2.4,60.20563837
145,0,145,0,10,398.5737039,398.5737039,0.0428479,[0.11574074074074074],[-0.41203703703703703],[1],[0],[0],[2.127573800040409],['target'],2,1,2022-09-29_18h12.04.146,Tutorial_3,2022.2.4,60.20563837
146,0,146,0,10,400.7325675,400.7325675,0.0306734,[-0.47685185185185186],[0.49074074074074076],[1],[0],[0],[2.321979299886152],['target'],2,1,2022-09-29_18h12.04.146,Tutorial_3,2022.2.4,60.20563837
147,0,147,0,10,403.0947253,403.0947253,0.0329717,[-0.14814814814814814],[-0.11018518518518519],[1],[0],[0],[3.0687985999975353],['target'],2,1,2022-09-29_18h12.04.146,Tutorial_3,2022.2.4,60.20563837
148,0,148,0,10,406.2046567,406.2046567,0.0364158,[0.40185185185185185],[0.05462962962962963],[1],[0],[0],[2.018536099931225],['target'],2,1,2022-09-29_18h12.04.146,Tutorial_3,2022.2.4,60.20563837
149,0,149,0,5,408.2484495,408.2484495,0.0242661,[0.21944444444444444],[-0.0824074074074074],[1],[0],[0],[1.7143401999492198],['target'],2,1,2022-09-29_18h12.04.146,Tutorial_3,2022.2.4,60.20563837
150,0,150,0,5,409.9982277,409.9982277,0.0252037,[-0.46574074074074073],[-0.2324074074074074],[1],[0],[0],[3.009665099903941],['target'],2,1,2022-09-29_18h12.04.146,Tutorial_3,2022.2.4,60.20563837
151,0,151,0,10,413.0521673,413.0521673,0.0386891,[-0.29259259259259257],[-0.14722222222222223],[1],[0],[0],[4.392483399948105],['target'],2,1,2022-09-29_18h12.04.146,Tutorial_3,2022.2.4,60.20563837
152,0,152,0,5,417.4750652,417.4750652,0.0220871,[-0.45740740740740743],[0.08148148148148149],[1],[0],[0],[1.8650598998647183],['target'],2,1,2022-09-29_18h12.04.146,Tutorial_3,2022.2.4,60.20563837
153,0,153,0,5,419.3715476,419.3715476,0.0242327,[-0.45185185185185184],[-0.21574074074074073],[1],[0],[0],[1.8808228999841958],['target'],2,1,2022-09-29_18h12.04.146,Tutorial_3,2022.2.4,60.20563837
154,0,154,0,5,421.2766281,421.2766281,0.0206434,[0.06666666666666667],[-0.012962962962962963],[1],[0],[0],[5.05930249998346],['target'],2,1,2022-09-29_18h12.04.146,Tutorial_3,2022.2.4,60.20563837
155,0,155,0,10,426.3775252,426.3775252,0.0311032,[-0.4703703703703704],[0.4],[1],[0],[0],[2.1565805999562144],['target'],2,1,2022-09-29_18h12.04.146,Tutorial_3,2022.2.4,60.20563837
156,0,156,0,5,428.562162,428.562162,0.0247698,[0.34074074074074073],[-0.15925925925925927],[1],[0],[0],[2.3118203000631183],['target'],2,1,2022-09-29_18h12.04.146,Tutorial_3,2022.2.4,60.20563837
157,0,157,0,10,430.9234502,430.9234502,0.0376744,[-0.06296296296296296],[0.3861111111111111],[1],[0],[0],[3.878598100040108],['target'],2,1,2022-09-29_18h12.04.146,Tutorial_3,2022.2.4,60.20563837
158,0,158,0,10,434.8407804,434.8407804,0.0313991,[-0.4601851851851852],[0.2074074074074074],[1],[0],[0],[2.5376913000363857],['target'],2,1,2022-09-29_18h12.04.146,Tutorial_3,2022.2.4,60.20563837
159,0,159,0,5,437.4053094,437.4053094,0.0248289,[0.1527777777777778],[-0.39444444444444443],[1],[0],[0],[2.3626848000567406],['target'],2,1,2022-09-29_18h12.04.146,Tutorial_3,2022.2.4,60.20563837
160,0,160,0,10,439.8190276,439.8190276,0.0396192,[-0.44074074074074077],[-0.3824074074074074],[1],[0],[0],[1.9817954001482576],['target'],2,1,2022-09-29_18h12.04.146,Tutorial_3,2022.2.4,60.20563837
161,0,161,0,10,441.8392867,441.8392867,0.0339934,[-0.18055555555555555],[-0.125],[1],[0],[0],[2.60192560008727],['target'],2,1,2022-09-29_18h12.04.146,Tutorial_3,2022.2.4,60.20563837
162,0,162,0,10,444.4851394,444.4851394,0.0360496,[-0.16203703703703703],[0.225],[1],[0],[0],[2.8154672998934984],['target'],2,1,2022-09-29_18h12.04.146,Tutorial_3,2022.2.4,60.20563837
163,0,163,0,10,447.32991,447.32991,0.0254686,[-0.053703703703703705],[-0.18518518518518517],[1],[0],[0],[1.9326762999407947],['target'],2,1,2022-09-29_18h12.04.146,Tutorial_3,2022.2.4,60.20563837
164,0,164,0,10,449.2986011,449.2986011,0.0330314,[-0.15648148148148147],[-0.22962962962962963],[1],[0],[0],[1.5224415000993758],['target'],2,1,2022-09-29_18h12.04.146,Tutorial_3,2022.2.4,60.20563837
165,0,165,0,5,450.8494535,450.8494535,0.0212099,[-0.06666666666666667],[-0.2935185185185185],[1],[0],[0],[1.6327583999373019],['target'],2,1,2022-09-29_18h12.04.146,Tutorial_3,2022.2.4,60.20563837
166,0,166,0,5,452.5162416,452.5162416,0.024954,[-0.45185185185185184],[-0.16666666666666666],[1],[0],[0],[1.62863830011338],['target'],2,1,2022-09-29_18h12.04.146,Tutorial_3,2022.2.4,60.20563837
167,0,167,0,10,454.1982774,454.1982774,0.0417802,[-0.013888888888888888],[0.05925925925925926],[1],[0],[0],[2.8607270000502467],['target'],2,1,2022-09-29_18h12.04.146,Tutorial_3,2022.2.4,60.20563837
168,0,168,0,10,457.1065011,457.1065011,0.0362716,[-0.2222222222222222],[-0.24722222222222223],[1],[0],[0],[1.701967699918896],['target'],2,1,2022-09-29_18h12.04.146,Tutorial_3,2022.2.4,60.20563837
169,0,169,0,10,458.8391052,458.8391052,0.0327968,[-0.11851851851851852],[-0.23796296296296296],[1],[0],[0],[2.4204735001549125],['target'],2,1,2022-09-29_18h12.04.146,Tutorial_3,2022.2.4,60.20563837
170,0,170,0,10,461.3018604,461.3018604,0.0358845,[-0.37777777777777777],[-0.29444444444444445],[1],[0],[0],[2.0342085000593215],['target'],2,1,2022-09-29_18h12.04.146,Tutorial_3,2022.2.4,60.20563837
171,0,171,0,10,463.3823117,463.3823117,0.0359197,[-0.06666666666666667],[-0.009259259259259259],[1],[0],[0],[2.0354496999643743],['target'],2,1,2022-09-29_18h12.04.146,Tutorial_3,2022.2.4,60.20563837
172,0,172,0,10,465.4568336,465.4568336,0.0307953,[-0.14166666666666666],[-0.11574074074074074],[1],[0],[0],[1.9233416998758912],['target'],2,1,2022-09-29_18h12.04.146,Tutorial_3,2022.2.4,60.20563837
173,0,173,0,10,467.414674,467.414674,0.0272476,[-0.20555555555555555],[0.35462962962962963],[1],[0],[0],[4.1547417000401765],['target'],2,1,2022-09-29_18h12.04.146,Tutorial_3,2022.2.4,60.20563837
174,0,174,0,5,471.5962195,471.5962195,0.0259818,[-0.1287037037037037],[-0.43333333333333335],[1],[0],[0],[1.7459478999953717],['target'],2,1,2022-09-29_18h12.04.146,Tutorial_3,2022.2.4,60.20563837
175,0,175,0,10,473.3929846,473.3929846,0.0394225,[0.10185185185185185],[0.14074074074074075],[1],[0],[0],[3.676876600133255],['target'],2,1,2022-09-29_18h12.04.146,Tutorial_3,2022.2.4,60.20563837
176,0,176,0,10,477.1239404,477.1239404,0.0484727,[-0.06666666666666667],[-0.35648148148148145],[1],[0],[0],[2.5538720001932234],['target'],2,1,2022-09-29_18h12.04.146,Tutorial_3,2022.2.4,60.20563837
177,0,177,0,5,479.7046402,479.7046402,0.0232595,[-0.25925925925925924],[0.31574074074074077],[1],[0],[0],[1.831117699854076],['target'],2,1,2022-09-29_18h12.04.146,Tutorial_3,2022.2.4,60.20563837
178,0,178,0,10,481.5995274,481.5995274,0.0502808,[-0.45925925925925926],[-0.1814814814814815],[1],[0],[0],[1.9550477999728173],['target'],2,1,2022-09-29_18h12.04.146,Tutorial_3,2022.2.4,60.20563837
179,0,179,0,5,483.5811327,483.5811327,0.0248922,[0.49166666666666664],[-0.2722222222222222],[1],[0],[0],[4.439094499917701],['target'],2,1,2022-09-29_18h12.04.146,Tutorial_3,2022.2.4,60.20563837
180,0,180,0,10,488.0762405,488.0762405,0.0414527,[-0.001851851851851852],[0.2916666666666667],[1],[0],[0],[3.1598791999276727],['target'],2,1,2022-09-29_18h12.04.146,Tutorial_3,2022.2.4,60.20563837
181,0,181,0,10,491.2724632,491.2724632,0.0345322,[-0.3398148148148148],[0.11944444444444445],[1],[0],[0],[2.7678483999334276],['target'],2,1,2022-09-29_18h12.04.146,Tutorial_3,2022.2.4,60.20563837
182,0,182,0,5,494.0718817,494.0718817,0.0255564,[-0.18703703703703703],[-0.21851851851851853],[1],[0],[0],[1.8459473999682814],['target'],2,1,2022-09-29_18h12.04.146,Tutorial_3,2022.2.4,60.20563837
183,0,183,0,5,495.9465969,495.9465969,0.0243612,[-0.14444444444444443],[-0.30277777777777776],[1],[0],[0],[1.4141168999485672],['target'],2,1,2022-09-29_18h12.04.146,Tutorial_3,2022.2.4,60.20563837
184,0,184,0,10,497.3841671,497.3841671,0.0216641,[-0.1935185185185185],[0.2759259259259259],[1],[0],[0],[2.7857835998293012],['target'],2,1,2022-09-29_18h12.04.146,Tutorial_3,2022.2.4,60.20563837
185,0,185,0,10,500.2143314,500.2143314,0.0318375,[0.44537037037037036],[-0.4324074074074074],[1],[0],[0],[3.283253700006753],['target'],2,1,2022-09-29_18h12.04.146,Tutorial_3,2022.2.4,60.20563837
186,0,186,0,5,503.5202228,503.5202228,0.0173715,[0.16018518518518518],[-0.13333333333333333],[1],[0],[0],[1.8686226999852806],['target'],2,1,2022-09-29_18h12.04.146,Tutorial_3,2022.2.4,60.20563837
187,0,187,0,5,505.4211238,505.4211238,0.0227195,[-0.1648148148148148],[0.2777777777777778],[1],[0],[0],[2.3479855000041425],['target'],2,1,2022-09-29_18h12.04.146,Tutorial_3,2022.2.4,60.20563837
188,0,188,0,10,507.8098041,507.8098041,0.0362132,[0.05],[0.32222222222222224],[1],[0],[0],[3.730259200092405],['target'],2,1,2022-09-29_18h12.04.146,Tutorial_3,2022.2.4,60.20563837
189,0,189,0,10,511.5810728,511.5810728,0.0325592,[0.11481481481481481],[0.009259259259259259],[1],[0],[0],[3.3678572999779135],['target'],2,1,2022-09-29_18h12.04.146,Tutorial_3,2022.2.4,60.20563837
190,0,190,0,10,514.9907647,514.9907647,0.0364051,[0.4111111111111111],[0.2064814814814815],[1],[0],[0],[1.7848193999379873],['target'],2,1,2022-09-29_18h12.04.146,Tutorial_3,2022.2.4,60.20563837
191,0,191,0,10,516.8201325,516.8201325,0.0356565,[-0.025925925925925925],[0.1259259259259259],[1],[0],[0],[8.517991800094023],['target'],2,1,2022-09-29_18h12.04.146,Tutorial_3,2022.2.4,60.20563837
192,0,192,0,10,525.3768381,525.3768381,0.033183,[0.2916666666666667],[0.34444444444444444],[1],[0],[0],[2.1705509000457823],['target'],2,1,2022-09-29_18h12.04.146,Tutorial_3,2022.2.4,60.20563837
193,0,193,0,10,527.5872433,527.5872433,0.034038,[0.21851851851851853],[0.25277777777777777],[1],[0],[0],[1.9539214000105858],['target'],2,1,2022-09-29_18h12.04.146,Tutorial_3,2022.2.4,60.20563837
194,0,194,0,5,529.570858,529.570858,0.0264396,[0.3768518518518518],[0.23055555555555557],[1],[0],[0],[1.9612656999379396],['target'],2,1,2022-09-29_18h12.04.146,Tutorial_3,2022.2.4,60.20563837
195,0,195,0,5,531.5654777,531.5654777,0.0257126,[0.44814814814814813],[-0.2324074074074074],[1],[0],[0],[2.0455113002099097],['target'],2,1,2022-09-29_18h12.04.146,Tutorial_3,2022.2.4,60.20563837
196,0,196,0,5,533.6396881,533.6396881,0.022114,[-0.13703703703703704],[0.15092592592592594],[1],[0],[0],[1.9983791999984533],['target'],2,1,2022-09-29_18h12.04.146,Tutorial_3,2022.2.4,60.20563837
197,0,197,0,10,535.6864394,535.6864394,0.0365551,[-0.3731481481481482],[-0.44814814814814813],[1],[0],[0],[3.646920299855992],['target'],2,1,2022-09-29_18h12.04.146,Tutorial_3,2022.2.4,60.20563837
198,0,198,0,5,539.3452227,539.3452227,0.0138003,[-0.20462962962962963],[0.09537037037037037],[1],[0],[0],[1.8104407999198884],['target'],2,1,2022-09-29_18h12.04.146,Tutorial_3,2022.2.4,60.20563837
199,0,199,0,5,541.1891012,541.1891012,0.0227405,[-0.20462962962962963],[0.09537037037037037],[1],[0],[0],[0.718871199991554],[],2,1,2022-09-29_18h12.04.146,Tutorial_3,2022.2.4,60.20563837
