trials.thisRepN,trials.thisTrialN,trials.thisN,trials.thisIndex,num_distr,fixation.started,target.started,mouse.started,mouse.x,mouse.y,mouse.leftButton,mouse.midButton,mouse.rightButton,mouse.time,mouse.clicked_name,participant,session,date,expName,psychopyVersion,frameRate
0,0,0,0,10,66.1888544,66.1888544,0.0304505,[0.08518518518518518],[-0.25555555555555554],[1],[0],[0],[3.544868699973449],['target'],2,1,2022-09-29_18h12.04.146,Tutorial_3,2022.2.4,60.20563837
1,0,1,0,5,69.7528098,69.7528098,0.0208954,[0.46574074074074073],[-0.07407407407407407],[1],[0],[0],[1.4329588001128286],['target'],2,1,2022-09-29_18h12.04.146,Tutorial_3,2022.2.4,60.20563837
2,0,2,0,5,71.2029617,71.2029617,0.0144162,[-0.22870370370370371],[0.3675925925925926],[1],[0],[0],[2.059659000020474],['target'],2,1,2022-09-29_18h12.04.146,Tutorial_3,2022.2.4,60.20563837
3,0,3,0,5,73.2961283,73.2961283,0.0256184,[-0.06944444444444445],[-0.2833333333333333],[1],[0],[0],[1.596853000111878],['target'],2,1,2022-09-29_18h12.04.146,Tutorial_3,2022.2.4,60.20563837
4,0,4,0,10,74.9351016,74.9351016,0.0325025,[-0.06944444444444445],[-0.2833333333333333],[1],[0],[0],[0.771946300053969],[],2,1,2022-09-29_18h12.04.146,Tutorial_3,2022.2.4,60.20563837
5,0,5,0,10,75.7517587,75.7517587,0.0333554,[-0.06944444444444445],[-0.2833333333333333],[1],[0],[0],[0.6091619001235813],[],2,1,2022-09-29_18h12.04.146,Tutorial_3,2022.2.4,60.20563837
6,0,6,0,5,76.3883722,76.3883722,0.024008,[0.14351851851851852],[-0.19907407407407407],[1],[0],[0],[1.5810573000926524],['target'],2,1,2022-09-29_18h12.04.146,Tutorial_3,2022.2.4,60.20563837
7,0,7,0,10,78.0196314,78.0196314,0.0409859,[-0.3972222222222222],[0.3638888888888889],[1],[0],[0],[1.7805395999457687],['target'],2,1,2022-09-29_18h12.04.146,Tutorial_3,2022.2.4,60.20563837
8,0,8,0,5,79.8242803,79.8242803,0.0216252,[0.14722222222222223],[-0.20555555555555555],[1],[0],[0],[1.6838342000264674],['target'],2,1,2022-09-29_18h12.04.146,Tutorial_3,2022.2.4,60.20563837
9,0,9,0,5,81.5362218,81.5362218,0.0218016,[-0.4203703703703704],[0.32222222222222224],[1],[0],[0],[2.9136750001925975],['target'],2,1,2022-09-29_18h12.04.146,Tutorial_3,2022.2.4,60.20563837
10,0,10,0,10,84.5040637,84.5040637,0.0466023,[-0.38981481481481484],[-0.11574074074074074],[1],[0],[0],[1.8247944999020547],['target'],2,1,2022-09-29_18h12.04.146,Tutorial_3,2022.2.4,60.20563837
11,0,11,0,10,86.3753498,86.3753498,0.0360071,[0.40370370370370373],[0.34814814814814815],[1],[0],[0],[2.6664823999162763],['target'],2,1,2022-09-29_18h12.04.146,Tutorial_3,2022.2.4,60.20563837
12,0,12,0,10,89.0818491,89.0818491,0.0321222,[-0.1037037037037037],[0.37037037037037035],[1],[0],[0],[1.542751400033012],['target'],2,1,2022-09-29_18h12.04.146,Tutorial_3,2022.2.4,60.20563837
13,0,13,0,5,90.6424185,90.6424185,0.0180255,[-0.41574074074074074],[-0.40925925925925927],[1],[0],[0],[2.032941399840638],['target'],2,1,2022-09-29_18h12.04.146,Tutorial_3,2022.2.4,60.20563837
14,0,14,0,10,92.7188878,92.7188878,0.0340025,[0.11944444444444445],[0.2],[1],[0],[0],[1.8203560998663306],['target'],2,1,2022-09-29_18h12.04.146,Tutorial_3,2022.2.4,60.20563837
15,0,15,0,10,94.5806926,94.5806926,0.03041,[0.39537037037037037],[0.2898148148148148],[1],[0],[0],[1.5923007999081165],['target'],2,1,2022-09-29_18h12.04.146,Tutorial_3,2022.2.4,60.20563837
16,0,16,0,10,96.2039313,96.2039313,0.0283716,[-0.05555555555555555],[-0.46944444444444444],[1],[0],[0],[2.5584561000578105],['target'],2,1,2022-09-29_18h12.04.146,Tutorial_3,2022.2.4,60.20563837
17,0,17,0,5,98.7952358,98.7952358,0.0284278,[-0.21481481481481482],[0.15648148148148147],[1],[0],[0],[1.3784737000241876],['target'],2,1,2022-09-29_18h12.04.146,Tutorial_3,2022.2.4,60.20563837
18,0,18,0,10,100.2189924,100.2189924,0.0363202,[0.3277777777777778],[0.16296296296296298],[1],[0],[0],[1.8345783001277596],['target'],2,1,2022-09-29_18h12.04.146,Tutorial_3,2022.2.4,60.20563837
19,0,19,0,10,102.1020892,102.1020892,0.0356061,[-0.31574074074074077],[-0.462037037037037],[1],[0],[0],[1.9700527000240982],['target'],2,1,2022-09-29_18h12.04.146,Tutorial_3,2022.2.4,60.20563837
20,0,20,0,5,104.0965196,104.0965196,0.0236125,[0.004629629629629629],[-0.15092592592592594],[1],[0],[0],[3.223237100057304],['target'],2,1,2022-09-29_18h12.04.146,Tutorial_3,2022.2.4,60.20563837
21,0,21,0,10,107.3679486,107.3679486,0.0363069,[-0.29259259259259257],[0.05925925925925926],[1],[0],[0],[1.4532896999735385],['target'],2,1,2022-09-29_18h12.04.146,Tutorial_3,2022.2.4,60.20563837
22,0,22,0,5,108.8430942,108.8430942,0.019084,[0.1175925925925926],[0.2796296296296296],[1],[0],[0],[1.3874118998646736],['target'],2,1,2022-09-29_18h12.04.146,Tutorial_3,2022.2.4,60.20563837
23,0,23,0,5,110.2645954,110.2645954,0.0276333,[0.2462962962962963],[0.4083333333333333],[1],[0],[0],[1.3113816000986844],['target'],2,1,2022-09-29_18h12.04.146,Tutorial_3,2022.2.4,60.20563837
24,0,24,0,5,111.6100133,111.6100133,0.0246514,[-0.16203703703703703],[0.48703703703703705],[1],[0],[0],[1.5965837000403553],['target'],2,1,2022-09-29_18h12.04.146,Tutorial_3,2022.2.4,60.20563837
25,0,25,0,10,113.2265447,113.2265447,0.0185848,[-0.3453703703703704],[0.35],[1],[0],[0],[1.873684999998659],['target'],2,1,2022-09-29_18h12.04.146,Tutorial_3,2022.2.4,60.20563837
26,0,26,0,5,115.1315364,115.1315364,0.0257688,[-0.4583333333333333],[-0.362962962962963],[1],[0],[0],[1.9455258999951184],['target'],2,1,2022-09-29_18h12.04.146,Tutorial_3,2022.2.4,60.20563837
27,0,27,0,5,117.1119321,117.1119321,0.0258728,[0.37962962962962965],[-0.062037037037037036],[1],[0],[0],[2.7924085000995547],['target'],2,1,2022-09-29_18h12.04.146,Tutorial_3,2022.2.4,60.20563837
28,0,28,0,5,119.9363361,119.9363361,0.0255364,[-0.36944444444444446],[0.021296296296296296],[1],[0],[0],[1.5127085000276566],['target'],2,1,2022-09-29_18h12.04.146,Tutorial_3,2022.2.4,60.20563837
29,0,29,0,5,121.46252,121.46252,0.0120919,[-0.22314814814814815],[0.1638888888888889],[1],[0],[0],[1.4639663000125438],['target'],2,1,2022-09-29_18h12.04.146,Tutorial_3,2022.2.4,60.20563837
30,0,30,0,10,122.9560982,122.9560982,0.0240528,[-0.4759259259259259],[0.028703703703703703],[1],[0],[0],[1.2031497999560088],['target'],2,1,2022-09-29_18h12.04.146,Tutorial_3,2022.2.4,60.20563837
31,0,31,0,10,124.2083565,124.2083565,0.0389907,[-0.3453703703703704],[-0.3055555555555556],[1],[0],[0],[1.3844376001507044],[],2,1,2022-09-29_18h12.04.146,Tutorial_3,2022.2.4,60.20563837
32,0,32,0,10,125.6175355,125.6175355,0.0243587,[0.008333333333333333],[-0.10648148148148148],[1],[0],[0],[2.133022499969229],['target'],2,1,2022-09-29_18h12.04.146,Tutorial_3,2022.2.4,60.20563837
33,0,33,0,10,127.7790801,127.7790801,0.0258913,[0.1648148148148148],[-0.37962962962962965],[1],[0],[0],[2.281375000020489],['target'],2,1,2022-09-29_18h12.04.146,Tutorial_3,2022.2.4,60.20563837
34,0,34,0,5,130.0925239,130.0925239,0.0234824,[-0.33425925925925926],[-0.049074074074074076],[1],[0],[0],[2.064839599886909],['target'],2,1,2022-09-29_18h12.04.146,Tutorial_3,2022.2.4,60.20563837
35,0,35,0,10,132.2114382,132.2114382,0.0457698,[0.001851851851851852],[-0.2962962962962963],[1],[0],[0],[1.9254058999940753],['target'],2,1,2022-09-29_18h12.04.146,Tutorial_3,2022.2.4,60.20563837
36,0,36,0,5,134.1564699,134.1564699,0.0180783,[0.08888888888888889],[-0.026851851851851852],[1],[0],[0],[1.171497100032866],[],2,1,2022-09-29_18h12.04.146,Tutorial_3,2022.2.4,60.20563837
37,0,37,0,10,135.3724405,135.3724405,0.0363853,[0.3416666666666667],[-0.29907407407407405],[1],[0],[0],[2.666038300143555],['target'],2,1,2022-09-29_18h12.04.146,Tutorial_3,2022.2.4,60.20563837
38,0,38,0,5,138.0686673,138.0686673,0.0236724,[0.45925925925925926],[0.2],[1],[0],[0],[2.146434099879116],['target'],2,1,2022-09-29_18h12.04.146,Tutorial_3,2022.2.4,60.20563837
39,0,39,0,5,140.2480728,140.2480728,0.0272132,[0.27870370370370373],[-0.05277777777777778],[1],[0],[0],[2.3269583999644965],['target'],2,1,2022-09-29_18h12.04.146,Tutorial_3,2022.2.4,60.20563837
40,0,40,0,10,142.6343372,142.6343372,0.0433773,[-0.06574074074074074],[0.08518518518518518],[1],[0],[0],[1.529051700141281],['target'],2,1,2022-09-29_18h12.04.146,Tutorial_3,2022.2.4,60.20563837
41,0,41,0,10,144.2193736,144.2193736,0.0490982,[-0.09259259259259259],[-0.19537037037037036],[1],[0],[0],[2.337415099842474],['target'],2,1,2022-09-29_18h12.04.146,Tutorial_3,2022.2.4,60.20563837
42,0,42,0,10,146.5930497,146.5930497,0.0342903,[0.1648148148148148],[-0.2064814814814815],[1],[0],[0],[1.690118100028485],['target'],2,1,2022-09-29_18h12.04.146,Tutorial_3,2022.2.4,60.20563837
43,0,43,0,5,148.3111841,148.3111841,0.0239729,[-0.24074074074074073],[0.4759259259259259],[1],[0],[0],[1.8108091000467539],['target'],2,1,2022-09-29_18h12.04.146,Tutorial_3,2022.2.4,60.20563837
44,0,44,0,10,150.1515155,150.1515155,0.0235327,[0.2490740740740741],[-0.36018518518518516],[1],[0],[0],[2.464367799926549],['target'],2,1,2022-09-29_18h12.04.146,Tutorial_3,2022.2.4,60.20563837
45,0,45,0,10,152.6602316,152.6602316,0.0322936,[0.2212962962962963],[-0.06111111111111111],[1],[0],[0],[1.6551739999558777],['target'],2,1,2022-09-29_18h12.04.146,Tutorial_3,2022.2.4,60.20563837
46,0,46,0,5,154.3382533,154.3382533,0.0214139,[0.37962962962962965],[0.44907407407407407],[1],[0],[0],[2.132842499995604],['target'],2,1,2022-09-29_18h12.04.146,Tutorial_3,2022.2.4,60.20563837
47,0,47,0,5,156.5059852,156.5059852,0.0245249,[0.2851851851851852],[-0.25092592592592594],[1],[0],[0],[2.013870900031179],['target'],2,1,2022-09-29_18h12.04.146,Tutorial_3,2022.2.4,60.20563837
48,0,48,0,5,158.5499458,158.5499458,0.027484,[0.2537037037037037],[0.09814814814814815],[1],[0],[0],[1.6275282998103648],['target'],2,1,2022-09-29_18h12.04.146,Tutorial_3,2022.2.4,60.20563837
49,0,49,0,5,160.2115856,160.2115856,0.0276024,[0.019444444444444445],[0.2037037037037037],[1],[0],[0],[2.3264897000044584],['target'],2,1,2022-09-29_18h12.04.146,Tutorial_3,2022.2.4,60.20563837
50,0,50,0,10,162.5880794,162.5880794,0.0433825,[0.21944444444444444],[0.09074074074074075],[1],[0],[0],[1.7619090001098812],['target'],2,1,2022-09-29_18h12.04.146,Tutorial_3,2022.2.4,60.20563837
51,0,51,0,10,164.3982708,164.3982708,0.035179,[-0.30185185185185187],[-0.07037037037037037],[1],[0],[0],[3.0326372999697924],['target'],2,1,2022-09-29_18h12.04.146,Tutorial_3,2022.2.4,60.20563837
52,0,52,0,10,167.4698257,167.4698257,0.0327712,[0.19074074074074074],[0.23796296296296296],[1],[0],[0],[1.8546522001270205],['target'],2,1,2022-09-29_18h12.04.146,Tutorial_3,2022.2.4,60.20563837
53,0,53,0,5,169.3437612,169.3437612,0.0197455,[0.4777777777777778],[0.14537037037037037],[1],[0],[0],[1.6708577999379486],['target'],2,1,2022-09-29_18h12.04.146,Tutorial_3,2022.2.4,60.20563837
54,0,54,0,10,171.0530889,171.0530889,0.0338604,[0.12685185185185185],[0.19722222222222222],[1],[0],[0],[2.221483899978921],['target'],2,1,2022-09-29_18h12.04.146,Tutorial_3,2022.2.4,60.20563837
55,0,55,0,5,173.2991768,173.2991768,0.0206743,[0.041666666666666664],[-0.23425925925925925],[1],[0],[0],[1.9036042999941856],['target'],2,1,2022-09-29_18h12.04.146,Tutorial_3,2022.2.4,60.20563837
56,0,56,0,10,175.2340279,175.2340279,0.0268852,[0.2824074074074074],[-0.07037037037037037],[1],[0],[0],[1.5980237999465317],['target'],2,1,2022-09-29_18h12.04.146,Tutorial_3,2022.2.4,60.20563837
57,0,57,0,10,176.867955,176.867955,0.029931,[-0.11481481481481481],[-0.11666666666666667],[1],[0],[0],[1.4600875000469387],['target'],2,1,2022-09-29_18h12.04.146,Tutorial_3,2022.2.4,60.20563837
58,0,58,0,5,178.3551502,178.3551502,0.0195615,[-0.1537037037037037],[-0.2953703703703704],[1],[0],[0],[1.8670198998879641],['target'],2,1,2022-09-29_18h12.04.146,Tutorial_3,2022.2.4,60.20563837
59,0,59,0,10,180.2467253,180.2467253,0.0188747,[0.24259259259259258],[-0.3111111111111111],[1],[0],[0],[2.8035128999035805],['target'],2,1,2022-09-29_18h12.04.146,Tutorial_3,2022.2.4,60.20563837
60,0,60,0,5,183.0584759,183.0584759,0.0096156,[-0.3055555555555556],[0.06296296296296296],[1],[0],[0],[2.1159578999504447],['target'],2,1,2022-09-29_18h12.04.146,Tutorial_3,2022.2.4,60.20563837
61,0,61,0,10,185.2128624,185.2128624,0.0287199,[-0.26944444444444443],[0.3814814814814815],[1],[0],[0],[1.9575823999475688],['target'],2,1,2022-09-29_18h12.04.146,Tutorial_3,2022.2.4,60.20563837
62,0,62,0,10,187.2016534,187.2016534,0.0269379,[0.20925925925925926],[0.17592592592592593],[1],[0],[0],[2.445124800084159],['target'],2,1,2022-09-29_18h12.04.146,Tutorial_3,2022.2.4,60.20563837
63,0,63,0,5,189.6706656,189.6706656,0.0182615,[0.005555555555555556],[0.2212962962962963],[1],[0],[0],[1.4384483001194894],['target'],2,1,2022-09-29_18h12.04.146,Tutorial_3,2022.2.4,60.20563837
64,0,64,0,10,191.153396,191.153396,0.0373929,[0.3592592592592593],[0.06111111111111111],[1],[0],[0],[3.217299000127241],['target'],2,1,2022-09-29_18h12.04.146,Tutorial_3,2022.2.4,60.20563837
65,0,65,0,10,194.4154136,194.4154136,0.0362155,[-0.3296296296296296],[0.16203703703703703],[1],[0],[0],[1.86859399988316],['target'],2,1,2022-09-29_18h12.04.146,Tutorial_3,2022.2.4,60.20563837
66,0,66,0,5,196.3120845,196.3120845,0.02486,[0.13055555555555556],[-0.4111111111111111],[1],[0],[0],[2.876295099966228],['target'],2,1,2022-09-29_18h12.04.146,Tutorial_3,2022.2.4,60.20563837
67,0,67,0,10,199.2296952,199.2296952,0.0365749,[-0.21203703703703702],[-0.028703703703703703],[1],[0],[0],[3.315348400035873],['target'],2,1,2022-09-29_18h12.04.146,Tutorial_3,2022.2.4,60.20563837
68,0,68,0,10,202.5994025,202.5994025,0.0418476,[-0.36203703703703705],[0.13796296296296295],[1],[0],[0],[3.0438436998520046],['target'],2,1,2022-09-29_18h12.04.146,Tutorial_3,2022.2.4,60.20563837
69,0,69,0,5,205.6677352,205.6677352,0.023404,[0.07222222222222222],[-0.38333333333333336],[1],[0],[0],[2.130036700051278],['target'],2,1,2022-09-29_18h12.04.146,Tutorial_3,2022.2.4,60.20563837
70,0,70,0,10,207.8455438,207.8455438,0.0402903,[0.24074074074074073],[-0.023148148148148147],[1],[0],[0],[1.6989149001892656],['target'],2,1,2022-09-29_18h12.04.146,Tutorial_3,2022.2.4,60.20563837
71,0,71,0,10,209.5883208,209.5883208,0.0329714,[-0.1537037037037037],[-0.4740740740740741],[1],[0],[0],[2.9014000999741256],['target'],2,1,2022-09-29_18h12.04.146,Tutorial_3,2022.2.4,60.20563837
72,0,72,0,5,212.5179681,212.5179681,0.0231966,[0.1259259259259259],[-0.07592592592592592],[1],[0],[0],[2.4966597999446094],['target'],2,1,2022-09-29_18h12.04.146,Tutorial_3,2022.2.4,60.20563837
73,0,73,0,10,215.0582313,215.0582313,0.0373633,[-0.25555555555555554],[0.325],[1],[0],[0],[2.300513500114903],['target'],2,1,2022-09-29_18h12.04.146,Tutorial_3,2022.2.4,60.20563837
74,0,74,0,10,217.4016887,217.4016887,0.0345319,[0.46944444444444444],[0.028703703703703703],[1],[0],[0],[2.035710500087589],['target'],2,1,2022-09-29_18h12.04.146,Tutorial_3,2022.2.4,60.20563837
75,0,75,0,5,219.4638898,219.4638898,0.0249749,[-0.45555555555555555],[0.49907407407407406],[1],[0],[0],[2.1958205001428723],['target'],2,1,2022-09-29_18h12.04.146,Tutorial_3,2022.2.4,60.20563837
76,0,76,0,10,221.7133371,221.7133371,0.0414314,[0.3074074074074074],[0.14629629629629629],[1],[0],[0],[2.944435200188309],['target'],2,1,2022-09-29_18h12.04.146,Tutorial_3,2022.2.4,60.20563837
77,0,77,0,10,224.7002764,224.7002764,0.0363015,[0.33240740740740743],[0.16574074074074074],[1],[0],[0],[1.6363377999514341],['target'],2,1,2022-09-29_18h12.04.146,Tutorial_3,2022.2.4,60.20563837
78,0,78,0,10,226.3776437,226.3776437,0.0362145,[0.27685185185185185],[-0.2462962962962963],[1],[0],[0],[2.031680299900472],['target'],2,1,2022-09-29_18h12.04.146,Tutorial_3,2022.2.4,60.20563837
79,0,79,0,10,228.4392766,228.4392766,0.0211759,[0.20833333333333334],[-0.017592592592592594],[1],[0],[0],[1.487348600057885],['target'],2,1,2022-09-29_18h12.04.146,Tutorial_3,2022.2.4,60.20563837
80,0,80,0,5,229.9397209,229.9397209,0.0158485,[-0.021296296296296296],[-0.42407407407407405],[1],[0],[0],[2.3577359998598695],['target'],2,1,2022-09-29_18h12.04.146,Tutorial_3,2022.2.4,60.20563837
81,0,81,0,5,232.3271588,232.3271588,0.0224404,[-0.43148148148148147],[-0.1537037037037037],[1],[0],[0],[1.798705300083384],['target'],2,1,2022-09-29_18h12.04.146,Tutorial_3,2022.2.4,60.20563837
82,0,82,0,10,234.1742211,234.1742211,0.0395459,[0.41759259259259257],[0.20092592592592592],[1],[0],[0],[1.982086299918592],['target'],2,1,2022-09-29_18h12.04.146,Tutorial_3,2022.2.4,60.20563837
83,0,83,0,5,236.1784229,236.1784229,0.0176546,[0.34444444444444444],[-0.38425925925925924],[1],[0],[0],[2.2529453998431563],['target'],2,1,2022-09-29_18h12.04.146,Tutorial_3,2022.2.4,60.20563837
84,0,84,0,5,238.4628049,238.4628049,0.0260481,[0.3194444444444444],[0.001851851851851852],[1],[0],[0],[1.8458648999221623],['target'],2,1,2022-09-29_18h12.04.146,Tutorial_3,2022.2.4,60.20563837
85,0,85,0,5,240.3302152,240.3302152,0.0152842,[-0.25555555555555554],[0.3990740740740741],[1],[0],[0],[2.25767119997181],['target'],2,1,2022-09-29_18h12.04.146,Tutorial_3,2022.2.4,60.20563837
86,0,86,0,5,242.6166386,242.6166386,0.0237294,[-0.11203703703703703],[-0.3148148148148148],[1],[0],[0],[1.747813900001347],['target'],2,1,2022-09-29_18h12.04.146,Tutorial_3,2022.2.4,60.20563837
87,0,87,0,10,244.4156746,244.4156746,0.0427933,[-0.12037037037037036],[-0.24074074074074073],[1],[0],[0],[3.391346000134945],['target'],2,1,2022-09-29_18h12.04.146,Tutorial_3,2022.2.4,60.20563837
88,0,88,0,10,247.8437099,247.8437099,0.0318736,[0.4666666666666667],[-0.17962962962962964],[1],[0],[0],[2.8869000000413507],['target'],2,1,2022-09-29_18h12.04.146,Tutorial_3,2022.2.4,60.20563837
89,0,89,0,10,250.7630085,250.7630085,0.0250739,[-0.4962962962962963],[-0.12222222222222222],[1],[0],[0],[3.492569599999115],['target'],2,1,2022-09-29_18h12.04.146,Tutorial_3,2022.2.4,60.20563837
90,0,90,0,5,254.2890979,254.2890979,0.0269989,[-0.13703703703703704],[0.1814814814814815],[1],[0],[0],[2.194249999942258],['target'],2,1,2022-09-29_18h12.04.146,Tutorial_3,2022.2.4,60.20563837
91,0,91,0,5,256.5127438,256.5127438,0.0247019,[0.32222222222222224],[0.26481481481481484],[1],[0],[0],[2.196352700004354],['target'],2,1,2022-09-29_18h12.04.146,Tutorial_3,2022.2.4,60.20563837
92,0,92,0,5,258.7325709,258.7325709,0.0160715,[-0.25925925925925924],[-0.21944444444444444],[1],[0],[0],[1.7579385000281036],['target'],2,1,2022-09-29_18h12.04.146,Tutorial_3,2022.2.4,60.20563837
93,0,93,0,5,260.5208823,260.5208823,0.0252081,[0.23703703703703705],[0.12314814814814815],[1],[0],[0],[3.1091541999485344],['target'],2,1,2022-09-29_18h12.04.146,Tutorial_3,2022.2.4,60.20563837
94,0,94,0,5,263.6582767,263.6582767,0.021671,[-0.08981481481481482],[-0.09074074074074075],[1],[0],[0],[2.4494643001817167],['target'],2,1,2022-09-29_18h12.04.146,Tutorial_3,2022.2.4,60.20563837
95,0,95,0,5,266.1345533,266.1345533,0.0219151,[0.15462962962962962],[0.0962962962962963],[1],[0],[0],[2.116829000180587],['target'],2,1,2022-09-29_18h12.04.146,Tutorial_3,2022.2.4,60.20563837
96,0,96,0,5,268.2684192,268.2684192,0.0142425,[0.1935185185185185],[-0.1712962962962963],[1],[0],[0],[2.0916860001161695],['target'],2,1,2022-09-29_18h12.04.146,Tutorial_3,2022.2.4,60.20563837
97,0,97,0,5,270.3848257,270.3848257,0.0194383,[0.1935185185185185],[-0.1712962962962963],[1],[0],[0],[0.6735805000644177],[],2,1,2022-09-29_18h12.04.146,Tutorial_3,2022.2.4,60.20563837
98,0,98,0,5,271.0746359,271.0746359,0.0137568,[0.1935185185185185],[-0.1712962962962963],[1],[0],[0],[0.4148562999907881],[],2,1,2022-09-29_18h12.04.146,Tutorial_3,2022.2.4,60.20563837
99,0,99,0,10,271.5324883,271.5324883,0.0330792,[0.1935185185185185],[-0.1712962962962963],[1],[0],[0],[0.26032859995029867],[],2,1,2022-09-29_18h12.04.146,Tutorial_3,2022.2.4,60.20563837
100,0,100,0,10,271.8311031,271.8311031,0.0340472,[0.48703703703703705],[0.33425925925925926],[1],[0],[0],[3.500290500000119],['target'],2,1,2022-09-29_18h12.04.146,Tutorial_3,2022.2.4,60.20563837
101,0,101,0,10,278.9594836,278.9594836,0.0432145,[-0.26851851851851855],[0.3509259259259259],[1],[0],[0],[1.9115206999704242],['target'],1,1,2022-09-29_17h00.18.301,Tutorial_3,2022.2.4,60.31494048
102,0,102,0,10,280.9118572,280.9118572,0.0326399,[-0.38796296296296295],[-0.42777777777777776],[1],[0],[0],[3.1680695000104606],['target'],1,1,2022-09-29_17h00.18.301,Tutorial_3,2022.2.4,60.31494048
103,0,103,0,5,284.1133851,284.1133851,0.0255913,[0.44351851851851853],[0.387037037037037],[1],[0],[0],[2.5110581999178976],['target'],1,1,2022-09-29_17h00.18.301,Tutorial_3,2022.2.4,60.31494048
104,0,104,0,10,286.6696335,286.6696335,0.0366784,[-0.12777777777777777],[0.3388888888888889],[1],[0],[0],[2.5827342998236418],['target'],1,1,2022-09-29_17h00.18.301,Tutorial_3,2022.2.4,60.31494048
105,0,105,0,10,289.2905078,289.2905078,0.0334062,[-0.4898148148148148],[0.05648148148148148],[1],[0],[0],[2.4862401999998838],['target'],1,1,2022-09-29_17h00.18.301,Tutorial_3,2022.2.4,60.31494048
106,0,106,0,10,291.8300148,291.8300148,0.0430606,[0.262037037037037],[-0.006481481481481481],[1],[0],[0],[3.0588100000750273],['target'],1,1,2022-09-29_17h00.18.301,Tutorial_3,2022.2.4,60.31494048
107,0,107,0,5,294.9103597,294.9103597,0.0228202,[-0.04722222222222222],[-0.17962962962962964],[1],[0],[0],[1.9652984999120235],['target'],1,1,2022-09-29_17h00.18.301,Tutorial_3,2022.2.4,60.31494048
108,0,108,0,5,296.9140301,296.9140301,0.0306661,[0.2657407407407407],[-0.23333333333333334],[1],[0],[0],[2.0070865999441594],['target'],1,1,2022-09-29_17h00.18.301,Tutorial_3,2022.2.4,60.31494048
109,0,109,0,10,298.9826537,298.9826537,0.0509694,[0.4425925925925926],[-0.26296296296296295],[1],[0],[0],[1.9863739002030343],['target'],1,1,2022-09-29_17h00.18.301,Tutorial_3,2022.2.4,60.31494048
110,0,110,0,10,301.0177486,301.0177486,0.0435999,[0.11018518518518519],[-0.4361111111111111],[1],[0],[0],[3.789163399953395],['target'],1,1,2022-09-29_17h00.18.301,Tutorial_3,2022.2.4,60.31494048
111,0,111,0,10,304.8590373,304.8590373,0.0434439,[0.4324074074074074],[0.041666666666666664],[1],[0],[0],[1.7621693999972194],['target'],1,1,2022-09-29_17h00.18.301,Tutorial_3,2022.2.4,60.31494048
112,0,112,0,5,306.6459468,306.6459468,0.0221422,[-0.42685185185185187],[0.075],[1],[0],[0],[2.1316490001045167],['target'],1,1,2022-09-29_17h00.18.301,Tutorial_3,2022.2.4,60.31494048
113,0,113,0,5,308.8082157,308.8082157,0.0243051,[-0.06851851851851852],[-0.2611111111111111],[1],[0],[0],[3.509230599971488],['target'],1,1,2022-09-29_17h00.18.301,Tutorial_3,2022.2.4,60.31494048
114,0,114,0,10,312.3640482,312.3640482,0.0362832,[-0.3287037037037037],[-0.16203703703703703],[1],[0],[0],[2.1510451999492943],['target'],1,1,2022-09-29_17h00.18.301,Tutorial_3,2022.2.4,60.31494048
115,0,115,0,10,314.5505682,314.5505682,0.0316763,[0.3712962962962963],[0.13703703703703704],[1],[0],[0],[2.6049138999078423],['target'],1,1,2022-09-29_17h00.18.301,Tutorial_3,2022.2.4,60.31494048
116,0,116,0,5,317.1852657,317.1852657,0.0228829,[0.08796296296296297],[0.36018518518518516],[1],[0],[0],[2.3299214001744986],['target'],1,1,2022-09-29_17h00.18.301,Tutorial_3,2022.2.4,60.31494048
117,0,117,0,10,319.5533897,319.5533897,0.0294601,[-0.44351851851851853],[0.001851851851851852],[1],[0],[0],[2.124895100016147],['target'],1,1,2022-09-29_17h00.18.301,Tutorial_3,2022.2.4,60.31494048
118,0,118,0,10,321.7224642,321.7224642,0.035934,[-0.3472222222222222],[0.3287037037037037],[1],[0],[0],[2.1345271000172943],['target'],1,1,2022-09-29_17h00.18.301,Tutorial_3,2022.2.4,60.31494048
119,0,119,0,5,323.8817147,323.8817147,0.0241034,[-0.08703703703703704],[0.3472222222222222],[1],[0],[0],[1.7477442000526935],['target'],1,1,2022-09-29_17h00.18.301,Tutorial_3,2022.2.4,60.31494048
120,0,120,0,10,325.6748735,325.6748735,0.0363791,[-0.037037037037037035],[0.3388888888888889],[1],[0],[0],[1.5360894000623375],['target'],1,1,2022-09-29_17h00.18.301,Tutorial_3,2022.2.4,60.31494048
121,0,121,0,10,327.2573254,327.2573254,0.0362164,[0.32222222222222224],[-0.38055555555555554],[1],[0],[0],[3.962242899928242],['target'],1,1,2022-09-29_17h00.18.301,Tutorial_3,2022.2.4,60.31494048
122,0,122,0,5,331.2423225,331.2423225,0.0201206,[-0.22592592592592592],[-0.3425925925925926],[1],[0],[0],[2.6661792998202145],['target'],1,1,2022-09-29_17h00.18.301,Tutorial_3,2022.2.4,60.31494048
123,0,123,0,5,333.9404317,333.9404317,0.0250164,[0.08148148148148149],[0.43333333333333335],[1],[0],[0],[3.1095913001336157],['target'],1,1,2022-09-29_17h00.18.301,Tutorial_3,2022.2.4,60.31494048
124,0,124,0,10,337.0963179,337.0963179,0.0357473,[-0.24537037037037038],[-0.09166666666666666],[1],[0],[0],[2.003266300074756],['target'],1,1,2022-09-29_17h00.18.301,Tutorial_3,2022.2.4,60.31494048
125,0,125,0,10,339.1345909,339.1345909,0.0276682,[0.1962962962962963],[0.10092592592592593],[1],[0],[0],[2.39037899998948],['target'],1,1,2022-09-29_17h00.18.301,Tutorial_3,2022.2.4,60.31494048
126,0,126,0,5,341.538768,341.538768,0.0177306,[-0.275],[0.17222222222222222],[1],[0],[0],[1.7583814999088645],['target'],1,1,2022-09-29_17h00.18.301,Tutorial_3,2022.2.4,60.31494048
127,0,127,0,5,343.3329536,343.3329536,0.0244636,[-0.11203703703703703],[-0.4388888888888889],[1],[0],[0],[3.1253865999169648],['target'],1,1,2022-09-29_17h00.18.301,Tutorial_3,2022.2.4,60.31494048
128,0,128,0,5,346.4865378,346.4865378,0.0239392,[0.48055555555555557],[0.47314814814814815],[1],[0],[0],[3.4597666000481695],['target'],1,1,2022-09-29_17h00.18.301,Tutorial_3,2022.2.4,60.31494048
129,0,129,0,5,349.9797752,349.9797752,0.0251629,[0.4351851851851852],[0.3509259259259259],[1],[0],[0],[1.5136484999675304],['target'],1,1,2022-09-29_17h00.18.301,Tutorial_3,2022.2.4,60.31494048
130,0,130,0,5,351.5229289,351.5229289,0.0243539,[0.4925925925925926],[0.23703703703703705],[1],[0],[0],[1.8145433000754565],['target'],1,1,2022-09-29_17h00.18.301,Tutorial_3,2022.2.4,60.31494048
131,0,131,0,10,353.3898713,353.3898713,0.0386427,[0.3712962962962963],[-0.012037037037037037],[1],[0],[0],[2.0666590000037104],['target'],1,1,2022-09-29_17h00.18.301,Tutorial_3,2022.2.4,60.31494048
132,0,132,0,10,355.4875256,355.4875256,0.0292574,[0.3074074074074074],[-0.3925925925925926],[1],[0],[0],[3.0872850997839123],['target'],1,1,2022-09-29_17h00.18.301,Tutorial_3,2022.2.4,60.31494048
133,0,133,0,5,358.5992095,358.5992095,0.0193535,[0.0712962962962963],[0.011111111111111112],[1],[0],[0],[1.486498499987647],['target'],1,1,2022-09-29_17h00.18.301,Tutorial_3,2022.2.4,60.31494048
134,0,134,0,10,360.1322234,360.1322234,0.035055,[-0.03518518518518519],[0.22314814814814815],[1],[0],[0],[1.7702350001782179],['target'],1,1,2022-09-29_17h00.18.301,Tutorial_3,2022.2.4,60.31494048
135,0,135,0,5,361.9247439,361.9247439,0.0201185,[0.2074074074074074],[-0.09351851851851851],[1],[0],[0],[1.7515625997912139],['target'],1,1,2022-09-29_17h00.18.301,Tutorial_3,2022.2.4,60.31494048
136,0,136,0,5,363.7102679,363.7102679,0.0245578,[-0.08703703703703704],[0.001851851851851852],[1],[0],[0],[1.3307007998228073],['target'],1,1,2022-09-29_17h00.18.301,Tutorial_3,2022.2.4,60.31494048
137,0,137,0,5,365.0703421,365.0703421,0.0232932,[-0.040740740740740744],[0.32685185185185184],[1],[0],[0],[1.5496271001175046],['target'],1,1,2022-09-29_17h00.18.301,Tutorial_3,2022.2.4,60.31494048
138,0,138,0,10,366.6657872,366.6657872,0.0355303,[-0.1574074074074074],[-0.287962962962963],[1],[0],[0],[2.4499705999623984],['target'],1,1,2022-09-29_17h00.18.301,Tutorial_3,2022.2.4,60.31494048
139,0,139,0,5,369.1244668,369.1244668,0.0115088,[0.11203703703703703],[-0.09814814814814815],[1],[0],[0],[1.5644400001037866],['target'],1,1,2022-09-29_17h00.18.301,Tutorial_3,2022.2.4,60.31494048
140,0,140,0,10,370.7365054,370.7365054,0.034746,[0.48148148148148145],[0.48703703703703705],[1],[0],[0],[6.173969599884003],['target'],1,1,2022-09-29_17h00.18.301,Tutorial_3,2022.2.4,60.31494048
141,0,141,0,5,376.9347442,376.9347442,0.0202803,[-0.12685185185185185],[-0.31666666666666665],[1],[0],[0],[2.5659112001303583],['target'],1,1,2022-09-29_17h00.18.301,Tutorial_3,2022.2.4,60.31494048
142,0,142,0,10,379.5499252,379.5499252,0.0384709,[0.19074074074074074],[0.21666666666666667],[1],[0],[0],[2.065827100072056],['target'],1,1,2022-09-29_17h00.18.301,Tutorial_3,2022.2.4,60.31494048
143,0,143,0,10,381.6551471,381.6551471,0.0316322,[-0.1259259259259259],[-0.4083333333333333],[1],[0],[0],[3.6845799998845905],['target'],1,1,2022-09-29_17h00.18.301,Tutorial_3,2022.2.4,60.31494048
144,0,144,0,10,385.3784574,385.3784574,0.0320701,[-0.287962962962963],[-0.1962962962962963],[1],[0],[0],[1.922315000090748],['target'],1,1,2022-09-29_17h00.18.301,Tutorial_3,2022.2.4,60.31494048
145,0,145,0,5,387.3241215,387.3241215,0.0213886,[-0.3972222222222222],[0.13425925925925927],[1],[0],[0],[2.1821224000304937],['target'],1,1,2022-09-29_17h00.18.301,Tutorial_3,2022.2.4,60.31494048
146,0,146,0,5,389.5287781,389.5287781,0.0167916,[0.3611111111111111],[0.2064814814814815],[1],[0],[0],[2.653025599895045],['target'],1,1,2022-09-29_17h00.18.301,Tutorial_3,2022.2.4,60.31494048
147,0,147,0,5,392.2219532,392.2219532,0.0308794,[0.4648148148148148],[0.16111111111111112],[1],[0],[0],[1.6082741999998689],['target'],1,1,2022-09-29_17h00.18.301,Tutorial_3,2022.2.4,60.31494048
148,0,148,0,5,393.8604764,393.8604764,0.0228351,[-0.20833333333333334],[0.18796296296296297],[1],[0],[0],[1.9644615000579506],['target'],1,1,2022-09-29_17h00.18.301,Tutorial_3,2022.2.4,60.31494048
149,0,149,0,5,395.8559543,395.8559543,0.0253219,[-0.030555555555555555],[0.42407407407407405],[1],[0],[0],[1.7470716000534594],['target'],1,1,2022-09-29_17h00.18.301,Tutorial_3,2022.2.4,60.31494048
150,0,150,0,10,397.6475401,397.6475401,0.0341389,[-0.35555555555555557],[-0.29259259259259257],[1],[0],[0],[2.6852690998930484],['target'],1,1,2022-09-29_17h00.18.301,Tutorial_3,2022.2.4,60.31494048
151,0,151,0,10,400.3700304,400.3700304,0.0298918,[0.4740740740740741],[-0.35555555555555557],[1],[0],[0],[2.106813000049442],['target'],1,1,2022-09-29_17h00.18.301,Tutorial_3,2022.2.4,60.31494048
152,0,152,0,10,402.511937,402.511937,0.03411,[0.15648148148148147],[-0.032407407407407406],[1],[0],[0],[2.1033377998974174],['target'],1,1,2022-09-29_17h00.18.301,Tutorial_3,2022.2.4,60.31494048
153,0,153,0,5,404.64364,404.64364,0.0212356,[0.09351851851851851],[-0.1175925925925926],[1],[0],[0],[1.5011762001086026],['target'],1,1,2022-09-29_17h00.18.301,Tutorial_3,2022.2.4,60.31494048
154,0,154,0,10,406.1903295,406.1903295,0.0328094,[-0.23981481481481481],[-0.37222222222222223],[1],[0],[0],[2.885857099900022],['target'],1,1,2022-09-29_17h00.18.301,Tutorial_3,2022.2.4,60.31494048
155,0,155,0,10,409.1120962,409.1120962,0.0331696,[0.36666666666666664],[0.4648148148148148],[1],[0],[0],[4.845138699980453],['target'],1,1,2022-09-29_17h00.18.301,Tutorial_3,2022.2.4,60.31494048
156,0,156,0,10,413.9994966,413.9994966,0.0359399,[0.46944444444444444],[0.4722222222222222],[1],[0],[0],[1.9855837000068277],['target'],1,1,2022-09-29_17h00.18.301,Tutorial_3,2022.2.4,60.31494048
157,0,157,0,10,416.0310396,416.0310396,0.0337189,[0.39814814814814814],[-0.46574074074074073],[1],[0],[0],[2.817284000106156],['target'],1,1,2022-09-29_17h00.18.301,Tutorial_3,2022.2.4,60.31494048
158,0,158,0,5,418.8696728,418.8696728,0.0211114,[0.2111111111111111],[-0.36018518518518516],[1],[0],[0],[1.751044100150466],['target'],1,1,2022-09-29_17h00.18.301,Tutorial_3,2022.2.4,60.31494048
159,0,159,0,10,420.6621365,420.6621365,0.0315741,[-0.24074074074074073],[-0.026851851851851852],[1],[0],[0],[2.2385720000602305],['target'],1,1,2022-09-29_17h00.18.301,Tutorial_3,2022.2.4,60.31494048
160,0,160,0,5,422.9260863,422.9260863,0.0199068,[0.49537037037037035],[0.2675925925925926],[1],[0],[0],[1.984813699964434],['target'],1,1,2022-09-29_17h00.18.301,Tutorial_3,2022.2.4,60.31494048
161,0,161,0,5,424.947153,424.947153,0.0284599,[-0.3287037037037037],[-0.3648148148148148],[1],[0],[0],[2.956492400029674],['target'],1,1,2022-09-29_17h00.18.301,Tutorial_3,2022.2.4,60.31494048
162,0,162,0,10,427.9515816,427.9515816,0.0366443,[-0.08055555555555556],[0.12222222222222222],[1],[0],[0],[2.1671889000572264],['target'],1,1,2022-09-29_17h00.18.301,Tutorial_3,2022.2.4,60.31494048
163,0,163,0,5,430.1432534,430.1432534,0.0233588,[0.4527777777777778],[0.29907407407407405],[1],[0],[0],[1.9147231001406908],['target'],1,1,2022-09-29_17h00.18.301,Tutorial_3,2022.2.4,60.31494048
164,0,164,0,5,432.0929724,432.0929724,0.0272471,[0.21388888888888888],[-0.24722222222222223],[1],[0],[0],[3.0910171000286937],['target'],1,1,2022-09-29_17h00.18.301,Tutorial_3,2022.2.4,60.31494048
165,0,165,0,10,435.226555,435.226555,0.0350358,[-0.04537037037037037],[0.25462962962962965],[1],[0],[0],[1.952300600009039],['target'],1,1,2022-09-29_17h00.18.301,Tutorial_3,2022.2.4,60.31494048
166,0,166,0,5,437.2094007,437.2094007,0.0269196,[-0.03148148148148148],[-0.2962962962962963],[1],[0],[0],[2.044029099866748],['target'],1,1,2022-09-29_17h00.18.301,Tutorial_3,2022.2.4,60.31494048
167,0,167,0,5,439.2866167,439.2866167,0.022122,[-0.14074074074074075],[0.49074074074074076],[1],[0],[0],[2.4316295001190156],['target'],1,1,2022-09-29_17h00.18.301,Tutorial_3,2022.2.4,60.31494048
168,0,168,0,10,441.7650749,441.7650749,0.0374795,[-0.45],[-0.1425925925925926],[1],[0],[0],[1.850073500070721],['target'],1,1,2022-09-29_17h00.18.301,Tutorial_3,2022.2.4,60.31494048
169,0,169,0,10,443.6510336,443.6510336,0.0292882,[-0.09074074074074075],[0.10555555555555556],[1],[0],[0],[1.6260519998613745],['target'],1,1,2022-09-29_17h00.18.301,Tutorial_3,2022.2.4,60.31494048
170,0,170,0,10,445.3159746,445.3159746,0.0328689,[-0.49722222222222223],[0.22962962962962963],[1],[0],[0],[2.0048352000303566],['target'],1,1,2022-09-29_17h00.18.301,Tutorial_3,2022.2.4,60.31494048
171,0,171,0,5,447.3452048,447.3452048,0.0232003,[-0.4083333333333333],[-0.33611111111111114],[1],[0],[0],[1.9646395000163466],['target'],1,1,2022-09-29_17h00.18.301,Tutorial_3,2022.2.4,60.31494048
172,0,172,0,10,449.3599877,449.3599877,0.037612,[-0.17685185185185184],[-0.4759259259259259],[1],[0],[0],[2.000372299924493],['target'],1,1,2022-09-29_17h00.18.301,Tutorial_3,2022.2.4,60.31494048
173,0,173,0,5,451.3868447,451.3868447,0.0246086,[0.3333333333333333],[-0.14907407407407408],[1],[0],[0],[1.6976531001273543],['target'],1,1,2022-09-29_17h00.18.301,Tutorial_3,2022.2.4,60.31494048
174,0,174,0,5,453.1161373,453.1161373,0.024114,[0.17777777777777778],[0.21944444444444444],[1],[0],[0],[8.380062500014901],['target'],1,1,2022-09-29_17h00.18.301,Tutorial_3,2022.2.4,60.31494048
175,0,175,0,10,461.5385719,461.5385719,0.0366837,[-0.3351851851851852],[-0.29444444444444445],[1],[0],[0],[2.116062399931252],['target'],1,1,2022-09-29_17h00.18.301,Tutorial_3,2022.2.4,60.31494048
176,0,176,0,10,463.6996454,463.6996454,0.032868,[-0.25925925925925924],[-0.3453703703703704],[1],[0],[0],[2.105700299842283],['target'],1,1,2022-09-29_17h00.18.301,Tutorial_3,2022.2.4,60.31494048
177,0,177,0,5,465.8285358,465.8285358,0.0213622,[-0.375],[0.42685185185185187],[1],[0],[0],[2.5141565001104027],['target'],1,1,2022-09-29_17h00.18.301,Tutorial_3,2022.2.4,60.31494048
178,0,178,0,10,468.3818465,468.3818465,0.0307992,[-0.27870370370370373],[-0.29907407407407405],[1],[0],[0],[2.9543991999235004],['target'],1,1,2022-09-29_17h00.18.301,Tutorial_3,2022.2.4,60.31494048
179,0,179,0,10,471.3840928,471.3840928,0.0358864,[0.011111111111111112],[0.27314814814814814],[1],[0],[0],[2.2346608999650925],['target'],1,1,2022-09-29_17h00.18.301,Tutorial_3,2022.2.4,60.31494048
180,0,180,0,5,473.6410237,473.6410237,0.0222787,[-0.040740740740740744],[0.20555555555555555],[1],[0],[0],[1.2177810999564826],['target'],1,1,2022-09-29_17h00.18.301,Tutorial_3,2022.2.4,60.31494048
181,0,181,0,10,474.9057049,474.9057049,0.0359597,[0.0787037037037037],[-0.2351851851851852],[1],[0],[0],[3.1152326001320034],['target'],1,1,2022-09-29_17h00.18.301,Tutorial_3,2022.2.4,60.31494048
182,0,182,0,5,478.0495775,478.0495775,0.023541,[0.3990740740740741],[-0.42685185185185187],[1],[0],[0],[2.71202680002898],['target'],1,1,2022-09-29_17h00.18.301,Tutorial_3,2022.2.4,60.31494048
183,0,183,0,5,480.7913024,480.7913024,0.0245353,[-0.3101851851851852],[0.22962962962962963],[1],[0],[0],[1.9636735001113266],['target'],1,1,2022-09-29_17h00.18.301,Tutorial_3,2022.2.4,60.31494048
184,0,184,0,5,482.7846291,482.7846291,0.0234506,[0.17314814814814813],[-0.1259259259259259],[1],[0],[0],[1.8479009000584483],['target'],1,1,2022-09-29_17h00.18.301,Tutorial_3,2022.2.4,60.31494048
185,0,185,0,10,484.6879147,484.6879147,0.0447155,[-0.22314814814814815],[0.12685185185185185],[1],[0],[0],[1.8760961999651045],['target'],1,1,2022-09-29_17h00.18.301,Tutorial_3,2022.2.4,60.31494048
186,0,186,0,10,486.5885497,486.5885497,0.0236079,[0.49907407407407406],[0.43796296296296294],[1],[0],[0],[2.316751299891621],['target'],1,1,2022-09-29_17h00.18.301,Tutorial_3,2022.2.4,60.31494048
187,0,187,0,10,488.9505572,488.9505572,0.0333515,[-0.26666666666666666],[-0.23055555555555557],[1],[0],[0],[2.3687118999660015],['target'],1,1,2022-09-29_17h00.18.301,Tutorial_3,2022.2.4,60.31494048
188,0,188,0,10,491.3512882,491.3512882,0.0287765,[0.1935185185185185],[0.17222222222222222],[1],[0],[0],[1.9775837999768555],['target'],1,1,2022-09-29_17h00.18.301,Tutorial_3,2022.2.4,60.31494048
189,0,189,0,5,493.3535072,493.3535072,0.0184377,[-0.40370370370370373],[-0.053703703703703705],[1],[0],[0],[1.7331249001435935],['target'],1,1,2022-09-29_17h00.18.301,Tutorial_3,2022.2.4,60.31494048
190,0,190,0,5,495.1207667,495.1207667,0.0278036,[-0.2638888888888889],[-0.2638888888888889],[1],[0],[0],[1.8604546999558806],['target'],1,1,2022-09-29_17h00.18.301,Tutorial_3,2022.2.4,60.31494048
191,0,191,0,5,497.0152313,497.0152313,0.0270994,[-0.3037037037037037],[0.06851851851851852],[1],[0],[0],[1.5125470999628305],['target'],1,1,2022-09-29_17h00.18.301,Tutorial_3,2022.2.4,60.31494048
192,0,192,0,5,498.5526969,498.5526969,0.0176134,[-0.4935185185185185],[0.4444444444444444],[1],[0],[0],[3.1679484001360834],['target'],1,1,2022-09-29_17h00.18.301,Tutorial_3,2022.2.4,60.31494048
193,0,193,0,5,501.7563719,501.7563719,0.0233356,[-0.29444444444444445],[0.4703703703703704],[1],[0],[0],[4.207869800040498],['target'],1,1,2022-09-29_17h00.18.301,Tutorial_3,2022.2.4,60.31494048
194,0,194,0,10,506.008772,506.008772,0.0405692,[-0.20092592592592592],[0.14537037037037037],[1],[0],[0],[3.5263501000590622],['target'],1,1,2022-09-29_17h00.18.301,Tutorial_3,2022.2.4,60.31494048
195,0,195,0,5,509.5586976,509.5586976,0.022253,[-0.1675925925925926],[-0.3277777777777778],[1],[0],[0],[1.7327023998368531],['target'],1,1,2022-09-29_17h00.18.301,Tutorial_3,2022.2.4,60.31494048
196,0,196,0,10,511.3363985,511.3363985,0.0363499,[0.30462962962962964],[-0.30648148148148147],[1],[0],[0],[2.483817799948156],['target'],1,1,2022-09-29_17h00.18.301,Tutorial_3,2022.2.4,60.31494048
197,0,197,0,5,513.854116,513.854116,0.0241124,[0.17962962962962964],[0.22407407407407406],[1],[0],[0],[2.1255060001276433],['target'],1,1,2022-09-29_17h00.18.301,Tutorial_3,2022.2.4,60.31494048
198,0,198,0,5,516.0097448,516.0097448,0.0233677,[-0.08425925925925926],[0.23333333333333334],[1],[0],[0],[1.7982790998648852],['target'],1,1,2022-09-29_17h00.18.301,Tutorial_3,2022.2.4,60.31494048
199,0,199,0,10,517.8547686,517.8547686,0.0347978,[-0.2111111111111111],[0.35185185185185186],[1],[0],[0],[1.471089000115171],['target'],1,1,2022-09-29_17h00.18.301,Tutorial_3,2022.2.4,60.31494048
